BVP,TEMP,ACC_x,ACC_y,ACC_z
-0.000274,31.991278,-56.000000,30.000000,13.000000
-0.000366,34.309685,-54.000000,32.000000,13.000000
-0.000680,35.754505,-55.000000,33.000000,12.000000
-0.000620,36.359970,-55.000000,31.000000,14.000000
-0.001491,36.231773,-53.000000,30.000000,13.000000
0.000652,35.531445,-56.000000,29.000000,13.000000
0.008849,34.455254,-56.000000,31.000000,13.000000
-0.029063,33.210358,-55.000000,31.000000,12.000000
-0.053526,31.991278,-57.000000,31.000000,14.000000
0.129399,30.942673,-53.000000,31.000000,15.000000
0.658384,30.192488,-54.000000,30.000000,13.000000
1.366973,29.802143,-57.000000,29.000000,13.000000
2.056166,29.777681,-57.000000,32.000000,13.000000
2.781866,30.075693,-54.000000,32.000000,16.000000
3.792578,30.614721,-57.000000,30.000000,13.000000
5.055568,31.290281,-54.000000,32.000000,12.000000
6.191866,31.991278,-54.000000,34.000000,14.000000
7.146308,32.598743,-55.000000,32.000000,13.000000
8.308087,33.046631,-52.000000,34.000000,15.000000
10.077060,33.288528,-51.000000,32.000000,17.000000
11.865895,33.312820,-55.000000,32.000000,14.000000
13.126775,33.140656,-53.000000,33.000000,15.000000
14.616403,32.819424,-52.000000,31.000000,15.000000
17.881489,32.413132,-56.000000,31.000000,14.000000
22.885530,31.991278,-55.000000,32.000000,16.000000
27.547089,31.601202,-56.000000,32.000000,15.000000
31.655485,31.307096,-56.000000,33.000000,12.000000
37.812210,31.142122,-53.000000,33.000000,16.000000
48.103725,31.117565,-53.000000,34.000000,14.000000
59.802261,31.223389,-55.000000,31.000000,12.000000
69.560440,31.431759,-53.000000,34.000000,16.000000
79.341301,31.702763,-54.000000,35.000000,12.000000
93.768074,31.991278,-56.000000,31.000000,15.000000
112.764267,32.237068,-48.000000,30.000000,17.000000
129.801254,32.418781,-52.000000,33.000000,13.000000
143.691711,32.516369,-51.000000,30.000000,20.000000
158.080933,32.524754,-54.000000,32.000000,13.000000
178.112778,32.453079,-51.000000,32.000000,17.000000
207.235001,32.321762,-54.000000,32.000000,16.000000
228.486359,32.158112,-57.000000,31.000000,14.000000
208.727463,31.991278,-50.000000,31.000000,18.000000
132.891159,31.830563,-57.000000,32.000000,13.000000
23.147732,31.709560,-53.000000,31.000000,16.000000
-92.478668,31.641865,-52.000000,34.000000,16.000000
-205.344376,31.631971,-56.000000,34.000000,11.000000
-313.916840,31.675602,-53.000000,35.000000,14.000000
-410.112915,31.761250,-53.000000,35.000000,14.000000
-486.833527,31.872589,-51.000000,32.000000,18.000000
-537.601257,31.991278,-53.000000,33.000000,17.000000
-550.365906,32.082886,-51.000000,34.000000,15.000000
-514.588318,32.147236,-51.000000,31.000000,18.000000
-434.188690,32.178131,-57.000000,31.000000,14.000000
-327.252777,32.175682,-55.000000,34.000000,16.000000
-212.763748,32.145538,-51.000000,35.000000,18.000000
-102.987938,32.097271,-51.000000,34.000000,19.000000
-5.864961,32.042217,-50.000000,35.000000,16.000000
71.535461,31.991278,-51.000000,35.000000,15.000000
125.662209,31.936152,-53.000000,34.000000,15.000000
158.887558,31.896008,-54.000000,34.000000,16.000000
176.586014,31.875071,-54.000000,32.000000,17.000000
182.793457,31.874449,-54.000000,33.000000,15.000000
179.710815,31.892393,-59.000000,33.000000,13.000000
169.826614,31.924913,-52.000000,31.000000,15.000000
156.289505,31.966570,-53.000000,34.000000,16.000000
141.404663,32.011292,-55.000000,32.000000,15.000000
126.089279,32.036320,-51.000000,34.000000,15.000000
110.731628,32.050819,-53.000000,32.000000,16.000000
95.820763,32.054405,-55.000000,33.000000,14.000000
81.829323,32.048939,-56.000000,29.000000,17.000000
68.942833,32.037903,-56.000000,30.000000,16.000000
57.230835,32.025497,-52.000000,33.000000,18.000000
46.760342,32.015682,-54.000000,34.000000,15.000000
37.562061,32.011292,-52.000000,35.000000,15.000000
29.585369,31.996618,-52.000000,36.000000,12.000000
22.784395,31.985163,-53.000000,35.000000,16.000000
17.088890,31.977921,-50.000000,35.000000,19.000000
12.456389,31.975449,-54.000000,32.000000,15.000000
8.811323,31.977921,-54.000000,31.000000,16.000000
6.048801,31.985163,-53.000000,33.000000,16.000000
4.030540,31.996618,-53.000000,34.000000,14.000000
2.607498,32.011292,-55.000000,32.000000,15.000000
1.639532,31.998844,-53.000000,34.000000,15.000000
1.002868,31.989328,-53.000000,32.000000,17.000000
0.602600,31.983482,-54.000000,33.000000,16.000000
0.358613,31.981657,-52.000000,33.000000,15.000000
0.216891,31.983898,-55.000000,31.000000,12.000000
0.138187,31.989983,-52.000000,32.000000,17.000000
0.107788,31.999403,-54.000000,32.000000,17.000000
0.108637,32.011292,-55.000000,30.000000,14.000000
0.139215,31.995510,-53.000000,31.000000,15.000000
0.198352,31.982367,-57.000000,30.000000,12.000000
0.268074,31.972889,-61.000000,31.000000,12.000000
0.355881,31.967714,-53.000000,30.000000,17.000000
0.449858,31.967154,-58.000000,30.000000,13.000000
0.541146,31.971207,-52.000000,29.000000,16.000000
0.641206,31.979513,-53.000000,30.000000,16.000000
0.750519,31.991278,-54.000000,29.000000,14.000000
0.879058,31.976353,-56.000000,26.000000,18.000000
1.039874,31.964951,-55.000000,30.000000,16.000000
1.234320,31.957935,-55.000000,32.000000,14.000000
1.479558,31.955729,-53.000000,32.000000,14.000000
1.789325,31.958393,-53.000000,35.000000,12.000000
2.166707,31.965672,-56.000000,33.000000,12.000000
2.669115,31.976965,-53.000000,32.000000,15.000000
3.304854,31.991278,-52.000000,33.000000,15.000000
3.974417,31.978312,-56.000000,32.000000,12.000000
4.616381,31.968199,-55.000000,30.000000,14.000000
5.357348,31.961786,-55.000000,32.000000,15.000000
6.427670,31.959549,-55.000000,31.000000,14.000000
7.797317,31.961657,-57.000000,32.000000,13.000000
9.202372,31.967999,-55.000000,32.000000,14.000000
10.556559,31.978146,-55.000000,30.000000,14.000000
12.159132,31.991278,-54.000000,30.000000,15.000000
14.192089,31.977255,-54.000000,30.000000,17.000000
16.372866,31.966335,-58.000000,31.000000,13.000000
18.316486,31.959454,-55.000000,30.000000,14.000000
20.167788,31.957119,-54.000000,30.000000,14.000000
22.009890,31.959488,-55.000000,30.000000,16.000000
22.587601,31.966387,-53.000000,29.000000,13.000000
19.655809,31.977297,-53.000000,29.000000,13.000000
12.546732,31.991278,-58.000000,28.000000,16.000000
3.203149,31.978071,-56.000000,31.000000,13.000000
-6.280299,31.967821,-54.000000,28.000000,16.000000
-16.048578,31.961372,-56.000000,30.000000,15.000000
-26.349396,31.959179,-54.000000,30.000000,15.000000
-34.273628,31.961380,-53.000000,30.000000,15.000000
-36.262749,31.967833,-56.000000,29.000000,15.000000
-33.931297,31.978079,-56.000000,30.000000,18.000000
-33.075512,31.991278,-57.000000,31.000000,14.000000
-35.620037,31.977278,-55.000000,33.000000,14.000000
-37.265141,31.966341,-52.000000,33.000000,15.000000
-35.176403,31.959414,-53.000000,32.000000,15.000000
-32.851891,31.957024,-56.000000,32.000000,13.000000
-35.612698,31.959351,-56.000000,31.000000,14.000000
-45.781521,31.966244,-53.000000,31.000000,17.000000
-56.283031,31.977200,-54.000000,29.000000,16.000000
-48.817547,31.991278,-54.000000,32.000000,16.000000
-16.119820,31.978212,-54.000000,31.000000,15.000000
19.320004,31.968128,-54.000000,31.000000,15.000000
31.403591,31.961836,-55.000000,32.000000,16.000000
23.496161,31.959753,-55.000000,31.000000,17.000000
14.948878,31.961987,-56.000000,32.000000,13.000000
14.007215,31.968359,-56.000000,31.000000,16.000000
20.325174,31.978403,-55.000000,34.000000,16.000000
33.475628,31.991278,-56.000000,30.000000,14.000000
47.322773,31.976852,-52.000000,30.000000,16.000000
51.457756,31.965450,-55.000000,32.000000,14.000000
42.641388,31.958084,-53.000000,28.000000,16.000000
27.509281,31.955374,-54.000000,30.000000,13.000000
13.533772,31.957586,-53.000000,30.000000,17.000000
2.670434,31.964668,-54.000000,30.000000,15.000000
-5.652799,31.976191,-56.000000,31.000000,14.000000
-11.327630,31.991278,-54.000000,31.000000,17.000000
-12.859702,31.979685,-52.000000,31.000000,17.000000
-8.668607,31.971540,-52.000000,28.000000,18.000000
-1.065326,31.967615,-56.000000,31.000000,17.000000
6.035840,31.968239,-54.000000,28.000000,16.000000
10.914681,31.973400,-56.000000,31.000000,19.000000
14.891980,31.982780,-53.000000,32.000000,16.000000
19.325989,31.995747,-54.000000,32.000000,16.000000
22.561508,32.011292,-51.000000,34.000000,16.000000
19.664177,31.999132,-55.000000,31.000000,15.000000
7.362900,31.989450,-55.000000,31.000000,17.000000
-11.506972,31.983160,-52.000000,31.000000,19.000000
-28.341097,31.980810,-55.000000,31.000000,17.000000
-34.419529,31.982651,-52.000000,29.000000,18.000000
-29.825315,31.988653,-53.000000,30.000000,17.000000
-24.970058,31.998457,-54.000000,33.000000,15.000000
-28.170414,32.011292,-53.000000,34.000000,16.000000
-34.615051,31.997047,-55.000000,31.000000,15.000000
-34.064411,31.986008,-55.000000,32.000000,17.000000
-22.992159,31.979101,-56.000000,30.000000,18.000000
-4.563297,31.976814,-54.000000,31.000000,16.000000
15.684561,31.979271,-53.000000,31.000000,15.000000
31.857328,31.986273,-54.000000,31.000000,16.000000
40.901890,31.997265,-53.000000,29.000000,14.000000
44.332771,32.011292,-60.000000,30.000000,13.000000
44.943287,31.998104,-53.000000,30.000000,17.000000
43.998718,31.987839,-58.000000,32.000000,16.000000
41.185513,31.981350,-55.000000,30.000000,15.000000
35.427925,31.979111,-54.000000,32.000000,15.000000
27.752317,31.981277,-55.000000,29.000000,16.000000
21.471403,31.987728,-55.000000,30.000000,16.000000
16.554808,31.998014,-57.000000,29.000000,14.000000
9.063237,32.011292,-56.000000,27.000000,16.000000
-1.325002,31.997423,-56.000000,32.000000,16.000000
-10.274203,31.986633,-56.000000,29.000000,15.000000
-16.595736,31.979837,-51.000000,33.000000,18.000000
-23.250563,31.977535,-52.000000,34.000000,14.000000
-30.177694,31.979874,-55.000000,33.000000,15.000000
-33.850758,31.986689,-55.000000,33.000000,15.000000
-34.122330,31.997469,-52.000000,31.000000,18.000000
-34.664387,32.011292,-55.000000,31.000000,16.000000
-36.221588,31.997940,-53.000000,31.000000,19.000000
-34.757538,31.987566,-55.000000,29.000000,17.000000
-27.646248,31.981033,-55.000000,30.000000,16.000000
-18.459557,31.978807,-53.000000,34.000000,17.000000
-14.280389,31.981035,-56.000000,34.000000,15.000000
-18.146679,31.987568,-49.000000,31.000000,19.000000
-25.017578,31.997940,-51.000000,31.000000,18.000000
-26.592272,32.011292,-55.000000,31.000000,17.000000
-19.322363,31.997471,-52.000000,32.000000,21.000000
-6.210468,31.986698,-57.000000,31.000000,13.000000
8.371772,31.979893,-58.000000,31.000000,10.000000
22.710861,31.977564,-52.000000,32.000000,16.000000
34.757072,31.979872,-59.000000,32.000000,11.000000
38.704952,31.986666,-56.000000,31.000000,15.000000
30.609423,31.997444,-54.000000,31.000000,17.000000
15.781811,32.011292,-56.000000,30.000000,14.000000
4.307855,31.997988,-54.000000,30.000000,17.000000
1.162041,31.987677,-54.000000,30.000000,14.000000
4.676361,31.981205,-55.000000,30.000000,15.000000
11.031343,31.979025,-56.000000,30.000000,14.000000
17.445152,31.981264,-56.000000,31.000000,14.000000
23.316853,31.987766,-54.000000,32.000000,16.000000
29.385723,31.998062,-57.000000,31.000000,14.000000
35.456051,32.011292,-55.000000,33.000000,14.000000
39.398987,31.997324,-52.000000,34.000000,15.000000
38.952877,31.986401,-54.000000,32.000000,15.000000
33.791286,31.979471,-52.000000,32.000000,17.000000
24.962793,31.977068,-51.000000,32.000000,18.000000
12.750061,31.979376,-54.000000,32.000000,17.000000
-1.630649,31.986256,-51.000000,33.000000,18.000000
-13.650379,31.997206,-55.000000,32.000000,14.000000
-20.747385,32.011292,-54.000000,32.000000,15.000000
-27.266651,31.998264,-53.000000,30.000000,18.000000
-38.804955,31.988222,-56.000000,33.000000,15.000000
-55.683372,31.981972,-54.000000,31.000000,20.000000
-72.963417,31.979916,-54.000000,31.000000,17.000000
-82.374428,31.982147,-50.000000,32.000000,18.000000
-78.087784,31.988491,-53.000000,33.000000,18.000000
-64.193321,31.998484,-55.000000,32.000000,14.000000
-50.798492,32.011292,-53.000000,32.000000,15.000000
-42.492237,31.996836,-55.000000,31.000000,14.000000
-39.070423,31.985426,-55.000000,31.000000,14.000000
-45.173229,31.978092,-52.000000,29.000000,16.000000
-65.322609,31.975451,-58.000000,30.000000,14.000000
-89.986908,31.977751,-54.000000,30.000000,17.000000
-100.050331,31.984898,-53.000000,29.000000,16.000000
-85.765511,31.996401,-55.000000,32.000000,15.000000
-52.661152,32.011292,-55.000000,30.000000,14.000000
-12.725386,31.999228,-57.000000,30.000000,16.000000
23.044151,31.990210,-52.000000,32.000000,17.000000
47.547848,31.984884,-57.000000,31.000000,16.000000
59.592503,31.983482,-55.000000,33.000000,15.000000
63.192207,31.985912,-51.000000,31.000000,17.000000
63.115871,31.991819,-54.000000,32.000000,17.000000
60.647434,32.000591,-55.000000,31.000000,15.000000
54.856880,32.011292,-54.000000,32.000000,17.000000
46.279381,31.993778,-53.000000,32.000000,16.000000
36.172543,31.978405,-53.000000,31.000000,18.000000
26.675985,31.966299,-53.000000,32.000000,16.000000
23.260454,31.958244,-56.000000,32.000000,15.000000
28.953070,31.954723,-54.000000,32.000000,16.000000
36.298275,31.955919,-54.000000,30.000000,16.000000
33.572567,31.961649,-54.000000,32.000000,17.000000
18.188784,31.971266,-57.000000,29.000000,16.000000
-1.585175,31.954727,-57.000000,30.000000,15.000000
-16.358223,31.942301,-52.000000,28.000000,19.000000
-23.180742,31.934841,-56.000000,31.000000,15.000000
-23.798351,31.932709,-57.000000,32.000000,14.000000
-19.096411,31.935858,-54.000000,29.000000,17.000000
-9.465363,31.943897,-52.000000,30.000000,13.000000
2.592810,31.956078,-55.000000,30.000000,15.000000
16.450882,31.971266,-54.000000,30.000000,15.000000
34.872025,31.959047,-54.000000,31.000000,17.000000
55.282890,31.949472,-57.000000,27.000000,16.000000
66.679268,31.943344,-53.000000,29.000000,16.000000
61.482616,31.941128,-55.000000,29.000000,16.000000
43.928585,31.943022,-58.000000,29.000000,13.000000
23.257799,31.948977,-55.000000,29.000000,15.000000
5.017780,31.958639,-56.000000,29.000000,15.000000
-9.338258,31.971266,-56.000000,30.000000,15.000000
-21.461281,31.956806,-56.000000,30.000000,15.000000
-34.946388,31.945572,-54.000000,31.000000,15.000000
-48.954536,31.938528,-58.000000,31.000000,13.000000
-55.542656,31.936186,-55.000000,29.000000,13.000000
-49.175552,31.938683,-53.000000,30.000000,17.000000
-34.507874,31.945812,-56.000000,31.000000,15.000000
-20.276825,31.957003,-57.000000,30.000000,14.000000
-10.370158,31.971266,-54.000000,30.000000,15.000000
-3.255833,31.958311,-56.000000,29.000000,14.000000
3.863512,31.948248,-56.000000,30.000000,15.000000
10.820114,31.941900,-54.000000,30.000000,17.000000
14.581400,31.939714,-53.000000,27.000000,17.000000
14.307575,31.941841,-59.000000,31.000000,16.000000
12.371104,31.948160,-58.000000,29.000000,16.000000
10.490854,31.958239,-50.000000,27.000000,16.000000
9.537198,31.971266,-55.000000,31.000000,14.000000
12.235636,31.957130,-61.000000,30.000000,9.000000
20.846619,31.946106,-56.000000,29.000000,13.000000
32.279202,31.939146,-53.000000,29.000000,16.000000
39.036026,31.936773,-59.000000,28.000000,12.000000
35.450470,31.939154,-55.000000,30.000000,13.000000
23.521925,31.946117,-53.000000,30.000000,14.000000
11.171571,31.957138,-55.000000,27.000000,17.000000
3.503934,31.971266,-54.000000,31.000000,14.000000
-1.346029,31.958235,-60.000000,28.000000,13.000000
-6.843965,31.948162,-60.000000,26.000000,14.000000
-14.228400,31.941864,-53.000000,29.000000,17.000000
-23.483561,31.939762,-55.000000,29.000000,15.000000
-31.015862,31.941973,-56.000000,32.000000,13.000000
-28.931757,31.948330,-55.000000,34.000000,12.000000
-14.413338,31.958374,-54.000000,29.000000,15.000000
4.296661,31.971266,-54.000000,32.000000,16.000000
16.976166,31.956896,-56.000000,30.000000,13.000000
21.873627,31.945562,-55.000000,29.000000,13.000000
23.714878,31.938263,-55.000000,32.000000,15.000000
25.589670,31.935600,-55.000000,31.000000,16.000000
26.366173,31.937826,-54.000000,30.000000,15.000000
25.031052,31.944872,-56.000000,32.000000,14.000000
23.418386,31.956308,-55.000000,28.000000,16.000000
23.219580,31.971266,-54.000000,30.000000,16.000000
23.820099,31.959536,-53.000000,29.000000,18.000000
23.830696,31.951256,-56.000000,30.000000,15.000000
22.527411,31.947218,-51.000000,32.000000,18.000000
20.235634,31.947781,-55.000000,31.000000,14.000000
17.152550,31.952944,-56.000000,32.000000,13.000000
11.968118,31.962404,-56.000000,29.000000,16.000000
3.946967,31.975523,-54.000000,30.000000,15.000000
-5.783637,31.991278,-54.000000,30.000000,14.000000
-17.281420,31.979376,-55.000000,30.000000,14.000000
-31.130367,31.969946,-55.000000,31.000000,14.000000
-42.964764,31.963860,-55.000000,31.000000,16.000000
-45.656300,31.961622,-56.000000,30.000000,13.000000
-40.354111,31.963453,-55.000000,29.000000,15.000000
-37.061874,31.969307,-56.000000,29.000000,15.000000
-40.034027,31.978828,-55.000000,29.000000,16.000000
-42.004597,31.991278,-56.000000,30.000000,15.000000
-37.438061,31.976612,-54.000000,31.000000,16.000000
-29.985537,31.965164,-55.000000,30.000000,15.000000
-22.674072,31.957928,-55.000000,32.000000,14.000000
-13.899910,31.955456,-52.000000,33.000000,16.000000
-5.492955,31.957928,-53.000000,32.000000,17.000000
-2.277448,31.965164,-53.000000,32.000000,15.000000
-4.649336,31.976612,-54.000000,31.000000,16.000000
-9.216917,31.991278,-55.000000,31.000000,17.000000
-11.525465,31.978849,-52.000000,31.000000,18.000000
-4.820080,31.969351,-56.000000,33.000000,15.000000
14.438335,31.963522,-56.000000,31.000000,15.000000
38.855915,31.961706,-51.000000,32.000000,16.000000
57.240467,31.963947,-53.000000,32.000000,18.000000
67.223442,31.970022,-58.000000,30.000000,15.000000
72.085747,31.979422,-55.000000,33.000000,14.000000
70.220337,31.991278,-53.000000,30.000000,19.000000
58.726166,31.975487,-58.000000,32.000000,14.000000
42.176113,31.962332,-51.000000,31.000000,16.000000
27.387291,31.952845,-55.000000,30.000000,17.000000
13.864826,31.947662,-55.000000,29.000000,14.000000
-2.539645,31.947104,-49.000000,30.000000,17.000000
-21.485992,31.951162,-56.000000,33.000000,15.000000
-39.402119,31.959482,-53.000000,29.000000,16.000000
-52.633045,31.971266,-56.000000,32.000000,15.000000
-57.047688,31.956390,-54.000000,30.000000,16.000000
-50.909477,31.945036,-54.000000,28.000000,17.000000
-37.000862,31.938061,-54.000000,31.000000,15.000000
-19.060579,31.935875,-54.000000,30.000000,14.000000
-0.470441,31.938540,-56.000000,31.000000,15.000000
14.198340,31.945789,-56.000000,31.000000,14.000000
22.199018,31.957029,-52.000000,30.000000,17.000000
26.152502,31.971266,-56.000000,33.000000,15.000000
30.180695,31.958242,-54.000000,31.000000,16.000000
33.678909,31.948072,-54.000000,30.000000,16.000000
32.250450,31.941614,-54.000000,31.000000,15.000000
24.910601,31.939354,-54.000000,30.000000,17.000000
18.387383,31.941463,-53.000000,32.000000,17.000000
21.569633,31.947840,-55.000000,32.000000,15.000000
35.267097,31.958050,-54.000000,30.000000,15.000000
50.149311,31.971266,-55.000000,31.000000,15.000000
56.953266,31.957365,-52.000000,31.000000,18.000000
55.715424,31.946562,-52.000000,29.000000,18.000000
51.932819,31.939770,-51.000000,32.000000,17.000000
47.007107,31.937483,-53.000000,29.000000,17.000000
37.838810,31.939842,-57.000000,32.000000,14.000000
23.777538,31.946672,-55.000000,32.000000,13.000000
7.821815,31.957455,-54.000000,30.000000,16.000000
-8.019036,31.971266,-57.000000,30.000000,14.000000
-24.670887,31.957895,-54.000000,30.000000,15.000000
-44.377483,31.947489,-62.000000,30.000000,11.000000
-67.126854,31.940918,-52.000000,28.000000,15.000000
-86.822815,31.938662,-54.000000,29.000000,15.000000
-94.816032,31.940874,-56.000000,29.000000,14.000000
-89.658577,31.947422,-53.000000,27.000000,19.000000
-78.350952,31.957840,-52.000000,29.000000,18.000000
-66.583878,31.971266,-57.000000,28.000000,13.000000
-54.660942,31.957548,-57.000000,27.000000,14.000000
-43.040890,31.946878,-59.000000,31.000000,11.000000
-34.094467,31.940161,-55.000000,30.000000,13.000000
-27.114601,31.937881,-54.000000,29.000000,12.000000
-17.582726,31.940189,-56.000000,31.000000,12.000000
-3.611127,31.946924,-57.000000,30.000000,13.000000
11.106277,31.957584,-54.000000,30.000000,13.000000
22.861828,31.971266,-56.000000,29.000000,14.000000
31.687693,31.957779,-56.000000,30.000000,14.000000
38.119816,31.947285,-57.000000,28.000000,12.000000
41.871647,31.940664,-58.000000,29.000000,13.000000
43.917824,31.938398,-52.000000,30.000000,15.000000
44.781490,31.940643,-55.000000,30.000000,13.000000
42.745255,31.947252,-54.000000,31.000000,15.000000
37.096523,31.957752,-53.000000,29.000000,15.000000
29.405260,31.971266,-55.000000,29.000000,16.000000
20.581118,31.957621,-52.000000,28.000000,17.000000
10.504854,31.947010,-58.000000,30.000000,11.000000
-0.506652,31.940327,-56.000000,32.000000,13.000000
-11.041854,31.938057,-59.000000,31.000000,11.000000
-16.928158,31.940346,-57.000000,28.000000,11.000000
-12.267460,31.947041,-57.000000,30.000000,13.000000
3.499313,31.957645,-57.000000,30.000000,12.000000
22.665834,31.971266,-57.000000,30.000000,12.000000
37.624733,31.957714,-55.000000,28.000000,14.000000
48.261292,31.947170,-56.000000,29.000000,14.000000
57.902042,31.940521,-56.000000,27.000000,15.000000
66.027382,31.938251,-56.000000,29.000000,14.000000
69.605019,31.940514,-55.000000,28.000000,15.000000
70.057564,31.947159,-57.000000,31.000000,13.000000
72.635483,31.957705,-54.000000,31.000000,13.000000
78.665184,31.971266,-51.000000,31.000000,16.000000
85.062706,31.957664,-56.000000,31.000000,13.000000
90.537605,31.947084,-56.000000,31.000000,13.000000
95.139488,31.940420,-55.000000,31.000000,15.000000
95.060631,31.938152,-58.000000,30.000000,13.000000
84.073120,31.940430,-51.000000,31.000000,18.000000
58.622223,31.947100,-54.000000,32.000000,16.000000
19.833107,31.957676,-55.000000,29.000000,13.000000
-25.697748,31.971266,-56.000000,31.000000,15.000000
-67.956024,31.957687,-57.000000,30.000000,13.000000
-99.561882,31.947123,-52.000000,28.000000,17.000000
-119.714256,31.940464,-53.000000,31.000000,16.000000
-132.664536,31.938194,-58.000000,30.000000,14.000000
-143.526382,31.940464,-55.000000,31.000000,15.000000
-153.910095,31.947123,-56.000000,31.000000,12.000000
-160.600052,31.957687,-55.000000,31.000000,13.000000
-159.637192,31.971266,-53.000000,31.000000,16.000000
-150.251358,31.957676,-55.000000,30.000000,13.000000
-133.645660,31.947100,-57.000000,29.000000,13.000000
-111.746307,31.940430,-56.000000,29.000000,13.000000
-89.055733,31.938152,-58.000000,29.000000,12.000000
-71.469383,31.940420,-55.000000,28.000000,15.000000
-60.343044,31.947084,-56.000000,29.000000,15.000000
-50.231499,31.957664,-53.000000,30.000000,16.000000
-35.016773,31.971266,-57.000000,28.000000,17.000000
-13.491918,31.957705,-54.000000,29.000000,16.000000
12.401845,31.947159,-56.000000,29.000000,15.000000
40.118744,31.940514,-57.000000,31.000000,14.000000
64.822220,31.938251,-55.000000,32.000000,14.000000
80.329750,31.940521,-53.000000,31.000000,14.000000
84.655411,31.947170,-53.000000,31.000000,15.000000
80.121399,31.957714,-53.000000,33.000000,15.000000
68.047600,31.971266,-55.000000,31.000000,16.000000
49.546207,31.957645,-56.000000,31.000000,15.000000
29.989614,31.947041,-55.000000,30.000000,16.000000
16.405380,31.940346,-52.000000,30.000000,18.000000
11.361711,31.938057,-55.000000,30.000000,14.000000
12.590991,31.940327,-57.000000,30.000000,14.000000
15.354640,31.947010,-52.000000,32.000000,16.000000
13.928972,31.957621,-53.000000,30.000000,16.000000
5.472034,31.971266,-57.000000,31.000000,16.000000
-6.927524,31.957752,-54.000000,32.000000,16.000000
-16.684010,31.947252,-56.000000,29.000000,16.000000
-17.963676,31.940643,-57.000000,29.000000,15.000000
-8.959882,31.938398,-55.000000,30.000000,15.000000
5.933728,31.940664,-54.000000,30.000000,15.000000
19.610147,31.947285,-56.000000,29.000000,14.000000
28.909088,31.957779,-56.000000,29.000000,13.000000
34.485455,31.971266,-56.000000,29.000000,13.000000
36.888073,31.957573,-57.000000,29.000000,11.000000
37.412895,31.946901,-54.000000,29.000000,15.000000
38.261665,31.940155,-57.000000,28.000000,15.000000
38.751297,31.937840,-54.000000,28.000000,16.000000
36.057426,31.940115,-55.000000,27.000000,16.000000
30.321243,31.946840,-56.000000,28.000000,13.000000
24.758358,31.957525,-56.000000,28.000000,17.000000
20.543039,31.971266,-55.000000,30.000000,17.000000
15.182939,31.957859,-56.000000,31.000000,14.000000
6.675466,31.947458,-55.000000,31.000000,12.000000
-2.574490,31.940926,-57.000000,32.000000,13.000000
-9.106704,31.938721,-56.000000,30.000000,14.000000
-13.680114,31.940975,-56.000000,32.000000,13.000000
-18.415859,31.947536,-54.000000,30.000000,15.000000
-22.152021,31.957922,-53.000000,30.000000,16.000000
-23.858366,31.971266,-54.000000,30.000000,15.000000
-26.116932,31.957415,-55.000000,30.000000,14.000000
-31.166718,31.946590,-55.000000,29.000000,15.000000
-37.384117,31.939726,-55.000000,31.000000,14.000000
-40.955944,31.937346,-54.000000,31.000000,16.000000
-38.333862,31.939632,-55.000000,29.000000,14.000000
-27.625147,31.946447,-57.000000,31.000000,15.000000
-10.234846,31.957298,-56.000000,29.000000,14.000000
8.163350,31.971266,-57.000000,30.000000,13.000000
20.975521,31.958117,-54.000000,30.000000,16.000000
26.521191,31.947969,-54.000000,29.000000,14.000000
27.600538,31.941643,-56.000000,29.000000,13.000000
25.217646,31.939558,-56.000000,30.000000,14.000000
18.054268,31.941814,-59.000000,29.000000,13.000000
8.610649,31.948233,-56.000000,27.000000,13.000000
3.058373,31.958334,-54.000000,28.000000,17.000000
3.528968,31.971266,-57.000000,30.000000,15.000000
6.084608,31.956926,-56.000000,29.000000,14.000000
6.975044,31.945589,-55.000000,31.000000,14.000000
6.544090,31.938265,-55.000000,28.000000,18.000000
6.770551,31.935562,-50.000000,28.000000,21.000000
8.556881,31.937756,-56.000000,32.000000,14.000000
11.437041,31.944792,-56.000000,34.000000,13.000000
14.019475,31.956251,-52.000000,33.000000,15.000000
14.813374,31.971266,-54.000000,32.000000,14.000000
13.208409,31.959637,-56.000000,32.000000,13.000000
9.006081,31.951462,-51.000000,31.000000,15.000000
1.368513,31.947514,-54.000000,31.000000,18.000000
-10.778846,31.948132,-53.000000,31.000000,15.000000
-26.627096,31.953299,-55.000000,30.000000,15.000000
-41.091892,31.962698,-55.000000,33.000000,14.000000
-46.934635,31.975695,-53.000000,30.000000,15.000000
-42.728878,31.991278,-55.000000,31.000000,15.000000
-36.316334,31.979191,-53.000000,33.000000,14.000000
-35.903614,31.969572,-56.000000,32.000000,16.000000
-40.613003,31.963326,-54.000000,32.000000,15.000000
-44.317417,31.960997,-55.000000,31.000000,13.000000
-43.480213,31.962828,-53.000000,32.000000,15.000000
-36.713039,31.968790,-56.000000,31.000000,13.000000
-22.962467,31.978527,-57.000000,28.000000,11.000000
-4.309422,31.991278,-53.000000,33.000000,16.000000
13.873179,31.976976,-55.000000,31.000000,14.000000
27.488037,31.965879,-55.000000,30.000000,13.000000
36.391842,31.958927,-53.000000,32.000000,15.000000
42.554523,31.956615,-54.000000,28.000000,16.000000
46.006832,31.959078,-55.000000,30.000000,15.000000
44.522831,31.966112,-57.000000,30.000000,15.000000
38.253216,31.977167,-53.000000,30.000000,16.000000
30.912111,31.991278,-54.000000,30.000000,17.000000
25.067801,31.978191,-53.000000,32.000000,17.000000
20.677107,31.968018,-52.000000,31.000000,16.000000
17.991180,31.961596,-53.000000,30.000000,17.000000
16.931343,31.959387,-54.000000,33.000000,14.000000
15.203122,31.961544,-53.000000,31.000000,18.000000
11.071497,31.967936,-56.000000,32.000000,15.000000
4.927733,31.978125,-51.000000,31.000000,18.000000
-3.747959,31.991278,-54.000000,31.000000,18.000000
-14.362493,31.977282,-56.000000,31.000000,13.000000
-18.690374,31.966372,-53.000000,31.000000,16.000000
-6.469290,31.959482,-52.000000,30.000000,19.000000
20.026495,31.957132,-54.000000,31.000000,17.000000
47.095215,31.959482,-54.000000,30.000000,17.000000
65.014687,31.966372,-53.000000,31.000000,19.000000
72.474945,31.977282,-54.000000,30.000000,15.000000
70.140129,31.991278,-55.000000,29.000000,15.000000
59.343216,31.978125,-52.000000,33.000000,16.000000
43.624699,31.967936,-55.000000,32.000000,14.000000
26.176468,31.961544,-56.000000,31.000000,13.000000
9.156037,31.959387,-54.000000,32.000000,15.000000
-4.361887,31.961596,-59.000000,30.000000,13.000000
-12.236902,31.968018,-56.000000,30.000000,13.000000
-15.384764,31.978191,-53.000000,30.000000,17.000000
-16.078625,31.991278,-56.000000,29.000000,16.000000
-16.941061,31.977167,-54.000000,30.000000,17.000000
-21.241730,31.966112,-54.000000,29.000000,15.000000
-31.121088,31.959078,-58.000000,29.000000,15.000000
-46.687096,31.956615,-54.000000,29.000000,19.000000
-67.687912,31.958927,-54.000000,33.000000,16.000000
-91.533234,31.965879,-53.000000,32.000000,18.000000
-110.513626,31.976976,-50.000000,34.000000,16.000000
-118.884521,31.991278,-52.000000,34.000000,17.000000
-121.403168,31.978518,-54.000000,34.000000,17.000000
-127.805573,31.968767,-56.000000,32.000000,14.000000
-138.654877,31.962793,-51.000000,30.000000,20.000000
-142.234589,31.960955,-54.000000,32.000000,17.000000
-127.140495,31.963282,-54.000000,31.000000,16.000000
-93.673584,31.969534,-54.000000,33.000000,16.000000
-50.297333,31.979168,-52.000000,31.000000,17.000000
-5.075118,31.991278,-53.000000,31.000000,18.000000
35.272217,31.975714,-54.000000,34.000000,17.000000
64.575760,31.962734,-51.000000,31.000000,18.000000
80.255951,31.953348,-55.000000,31.000000,18.000000
83.795120,31.948189,-58.000000,31.000000,13.000000
78.089470,31.947571,-53.000000,32.000000,14.000000
66.604584,31.951508,-52.000000,33.000000,18.000000
51.745014,31.959663,-54.000000,32.000000,15.000000
32.840538,31.971266,-52.000000,31.000000,17.000000
9.524815,31.956209,-53.000000,32.000000,17.000000
-13.599929,31.944710,-56.000000,31.000000,14.000000
-29.692114,31.937639,-54.000000,29.000000,16.000000
-37.244385,31.935425,-53.000000,32.000000,16.000000
-41.076740,31.938128,-56.000000,29.000000,15.000000
-45.692242,31.945477,-57.000000,31.000000,14.000000
-50.525414,31.956860,-51.000000,29.000000,20.000000
-52.294304,31.971266,-52.000000,31.000000,21.000000
-50.841068,31.958401,-54.000000,34.000000,16.000000
-49.515785,31.948362,-51.000000,32.000000,17.000000
-49.103447,31.941994,-52.000000,34.000000,17.000000
-45.445572,31.939762,-52.000000,33.000000,16.000000
-34.569057,31.941843,-54.000000,33.000000,16.000000
-17.233046,31.948132,-53.000000,32.000000,17.000000
1.944919,31.958210,-53.000000,32.000000,19.000000
18.319527,31.971266,-58.000000,31.000000,13.000000
31.689842,31.957195,-55.000000,31.000000,14.000000
46.179001,31.946247,-52.000000,30.000000,18.000000
63.232971,31.939358,-54.000000,32.000000,15.000000
78.577179,31.937033,-53.000000,30.000000,16.000000
88.889908,31.939421,-54.000000,33.000000,17.000000
97.048744,31.946344,-54.000000,32.000000,16.000000
106.397598,31.957275,-55.000000,30.000000,16.000000
112.450279,31.971266,-54.000000,31.000000,18.000000
107.067535,31.958076,-57.000000,31.000000,12.000000
89.950867,31.947836,-56.000000,32.000000,12.000000
68.139709,31.941387,-55.000000,31.000000,14.000000
45.951244,31.939188,-55.000000,30.000000,13.000000
24.015905,31.941380,-55.000000,31.000000,15.000000
5.850790,31.947824,-56.000000,31.000000,14.000000
-3.293761,31.958067,-54.000000,30.000000,15.000000
-4.232111,31.971266,-56.000000,30.000000,15.000000
-4.928804,31.957293,-55.000000,29.000000,14.000000
-13.342195,31.946390,-54.000000,28.000000,17.000000
-31.521255,31.939495,-56.000000,30.000000,14.000000
-55.876064,31.937128,-57.000000,28.000000,13.000000
-80.257561,31.939463,-58.000000,32.000000,16.000000
-98.148438,31.946339,-52.000000,30.000000,16.000000
-103.657501,31.957251,-53.000000,32.000000,14.000000
-94.268082,31.971266,-54.000000,33.000000,13.000000
-75.022278,31.958143,-54.000000,33.000000,14.000000
-56.726856,31.948002,-56.000000,31.000000,13.000000
-47.014961,31.941664,-55.000000,33.000000,16.000000
-46.347946,31.939558,-51.000000,29.000000,17.000000
-51.981590,31.941793,-54.000000,31.000000,16.000000
-58.244953,31.948200,-54.000000,30.000000,14.000000
-55.087368,31.958307,-55.000000,30.000000,14.000000
-34.627975,31.971266,-56.000000,31.000000,15.000000
1.613493,31.956963,-55.000000,33.000000,15.000000
44.205494,31.945675,-53.000000,29.000000,15.000000
81.853630,31.938402,-53.000000,31.000000,17.000000
106.695831,31.935738,-55.000000,30.000000,16.000000
115.967926,31.937943,-55.000000,30.000000,15.000000
109.704712,31.944954,-55.000000,32.000000,13.000000
90.618744,31.956348,-57.000000,31.000000,12.000000
65.843697,31.971266,-55.000000,31.000000,15.000000
43.316040,31.959509,-52.000000,31.000000,15.000000
26.642334,31.951208,-61.000000,30.000000,12.000000
15.666753,31.947161,-56.000000,31.000000,13.000000
9.112775,31.947721,-51.000000,30.000000,17.000000
5.533890,31.952894,-55.000000,30.000000,15.000000
5.200411,31.962368,-55.000000,29.000000,14.000000
10.241082,31.975506,-55.000000,29.000000,15.000000
21.051462,31.991278,-55.000000,31.000000,16.000000
34.662270,31.979399,-56.000000,29.000000,14.000000
46.466393,31.969984,-54.000000,30.000000,18.000000
51.853794,31.963903,-54.000000,30.000000,18.000000
47.717819,31.961664,-54.000000,32.000000,15.000000
34.764420,31.963488,-55.000000,33.000000,16.000000
18.574778,31.969330,-54.000000,33.000000,14.000000
6.121811,31.978840,-53.000000,34.000000,14.000000
0.055482,31.991278,-55.000000,32.000000,14.000000
-2.285333,31.976612,-54.000000,31.000000,15.000000
-4.346783,31.965164,-54.000000,31.000000,18.000000
-7.358220,31.957928,-55.000000,31.000000,16.000000
-10.546984,31.955456,-52.000000,30.000000,17.000000
-11.218596,31.957928,-53.000000,31.000000,16.000000
-6.884477,31.965164,-54.000000,32.000000,16.000000
0.474388,31.976612,-51.000000,31.000000,18.000000
4.256053,31.991278,-54.000000,31.000000,14.000000
-1.154477,31.978849,-55.000000,30.000000,18.000000
-15.183574,31.969351,-58.000000,31.000000,13.000000
-31.345680,31.963522,-52.000000,31.000000,17.000000
-41.859913,31.961706,-53.000000,30.000000,16.000000
-42.457127,31.963947,-56.000000,32.000000,14.000000
-34.295048,31.970022,-55.000000,30.000000,13.000000
-21.414310,31.979422,-55.000000,29.000000,12.000000
-5.249099,31.991278,-57.000000,31.000000,14.000000
13.724651,31.975487,-55.000000,27.000000,15.000000
28.390053,31.962332,-54.000000,29.000000,16.000000
28.890842,31.952845,-59.000000,32.000000,12.000000
16.386934,31.947662,-58.000000,29.000000,11.000000
2.709690,31.947104,-54.000000,29.000000,16.000000
-4.350708,31.951162,-54.000000,31.000000,16.000000
-5.888738,31.959482,-55.000000,29.000000,17.000000
-4.496753,31.971266,-55.000000,32.000000,15.000000
-0.329144,31.956390,-55.000000,30.000000,15.000000
6.308019,31.945036,-54.000000,31.000000,15.000000
12.390727,31.938061,-52.000000,34.000000,14.000000
14.317785,31.935875,-52.000000,32.000000,16.000000
11.602220,31.938540,-56.000000,34.000000,13.000000
5.477711,31.945789,-56.000000,33.000000,14.000000
-5.297990,31.957029,-54.000000,31.000000,17.000000
-22.719696,31.971266,-55.000000,31.000000,15.000000
-43.010796,31.958242,-52.000000,29.000000,18.000000
-55.607231,31.948072,-54.000000,31.000000,17.000000
-50.392673,31.941614,-54.000000,29.000000,17.000000
-26.559799,31.939354,-52.000000,31.000000,19.000000
6.227733,31.941463,-55.000000,31.000000,15.000000
36.012508,31.947840,-53.000000,30.000000,19.000000
55.117432,31.958050,-54.000000,32.000000,15.000000
60.266113,31.971266,-56.000000,30.000000,15.000000
53.091782,31.957365,-56.000000,31.000000,15.000000
41.302883,31.946562,-53.000000,31.000000,16.000000
33.883980,31.939770,-54.000000,30.000000,16.000000
33.710617,31.937483,-56.000000,28.000000,14.000000
36.482948,31.939842,-55.000000,30.000000,15.000000
36.646351,31.946672,-55.000000,29.000000,15.000000
33.803738,31.957455,-57.000000,31.000000,14.000000
31.010447,31.971266,-54.000000,29.000000,16.000000
28.949516,31.957895,-56.000000,29.000000,16.000000
25.942461,31.947489,-56.000000,29.000000,14.000000
21.858898,31.940918,-54.000000,30.000000,14.000000
17.933651,31.938662,-53.000000,29.000000,18.000000
13.855702,31.940874,-57.000000,31.000000,13.000000
7.544135,31.947422,-55.000000,32.000000,15.000000
-2.486127,31.957840,-53.000000,33.000000,16.000000
-14.938189,31.971266,-54.000000,32.000000,12.000000
-25.590910,31.957548,-54.000000,31.000000,16.000000
-30.404696,31.946878,-57.000000,31.000000,14.000000
-28.857563,31.940161,-52.000000,31.000000,16.000000
-23.434845,31.937881,-55.000000,31.000000,15.000000
-16.515528,31.940189,-55.000000,30.000000,14.000000
-8.487221,31.946924,-56.000000,30.000000,14.000000
0.729642,31.957584,-55.000000,30.000000,15.000000
10.028383,31.971266,-54.000000,32.000000,15.000000
18.542788,31.957779,-54.000000,30.000000,16.000000
26.101377,31.947285,-53.000000,31.000000,16.000000
30.840460,31.940664,-54.000000,30.000000,16.000000
29.482544,31.938398,-58.000000,30.000000,12.000000
21.690895,31.940643,-57.000000,32.000000,11.000000
10.683353,31.947252,-55.000000,28.000000,15.000000
-0.605135,31.957752,-55.000000,31.000000,13.000000
-10.322590,31.971266,-55.000000,30.000000,14.000000
-16.112614,31.957630,-58.000000,29.000000,12.000000
-16.373434,31.947033,-56.000000,31.000000,11.000000
-12.431698,31.940361,-57.000000,28.000000,15.000000
-8.399267,31.938099,-55.000000,29.000000,16.000000
-8.674147,31.940392,-55.000000,27.000000,15.000000
-14.769388,31.947079,-55.000000,28.000000,16.000000
-24.097672,31.957668,-55.000000,30.000000,14.000000
-33.224606,31.971266,-56.000000,29.000000,16.000000
-43.098019,31.957695,-56.000000,33.000000,14.000000
-58.876972,31.947134,-54.000000,32.000000,14.000000
-80.965553,31.940472,-55.000000,31.000000,14.000000
-99.342247,31.938194,-56.000000,33.000000,13.000000
-101.890686,31.940456,-53.000000,31.000000,16.000000
-85.477051,31.947111,-55.000000,30.000000,16.000000
-56.835133,31.957678,-56.000000,30.000000,14.000000
-26.447262,31.971266,-53.000000,30.000000,16.000000
-2.042000,31.957705,-54.000000,32.000000,14.000000
14.489801,31.947168,-57.000000,31.000000,16.000000
23.966824,31.940536,-56.000000,30.000000,14.000000
27.670839,31.938290,-56.000000,31.000000,13.000000
30.696938,31.940567,-52.000000,29.000000,18.000000
38.631725,31.947214,-55.000000,30.000000,17.000000
49.080482,31.957743,-52.000000,29.000000,19.000000
55.470291,31.971266,-58.000000,31.000000,12.000000
56.584438,31.957621,-55.000000,31.000000,14.000000
53.811371,31.946993,-53.000000,29.000000,16.000000
45.771454,31.940285,-57.000000,31.000000,12.000000
33.985554,31.937988,-56.000000,30.000000,14.000000
25.375483,31.940264,-54.000000,29.000000,14.000000
23.093567,31.946960,-54.000000,31.000000,14.000000
21.660095,31.957594,-54.000000,30.000000,16.000000
15.198236,31.971266,-55.000000,29.000000,15.000000
4.703496,31.957788,-54.000000,26.000000,15.000000
-5.754067,31.947323,-55.000000,28.000000,17.000000
-14.413676,31.940739,-54.000000,28.000000,17.000000
-22.207445,31.938507,-54.000000,29.000000,16.000000
-31.769846,31.940767,-55.000000,31.000000,14.000000
-43.068497,31.947369,-55.000000,32.000000,14.000000
-48.250412,31.957827,-56.000000,32.000000,13.000000
-38.513935,31.971266,-53.000000,33.000000,16.000000
-17.016214,31.957533,-56.000000,32.000000,15.000000
3.315895,31.946823,-55.000000,30.000000,14.000000
14.313243,31.940052,-53.000000,30.000000,17.000000
17.171820,31.937725,-57.000000,30.000000,16.000000
16.323166,31.940010,-54.000000,29.000000,16.000000
14.710148,31.946756,-55.000000,30.000000,14.000000
14.494112,31.957478,-56.000000,30.000000,14.000000
19.328379,31.971266,-55.000000,30.000000,16.000000
30.938841,31.957918,-56.000000,31.000000,15.000000
43.844357,31.947573,-50.000000,31.000000,19.000000
50.141724,31.941086,-54.000000,30.000000,20.000000
48.621834,31.938904,-57.000000,30.000000,14.000000
43.220055,31.941158,-54.000000,30.000000,15.000000
35.825569,31.947685,-56.000000,32.000000,15.000000
26.505686,31.958010,-55.000000,30.000000,13.000000
15.713490,31.971266,-57.000000,28.000000,16.000000
2.257077,31.957323,-59.000000,31.000000,14.000000
-15.922507,31.946405,-54.000000,28.000000,16.000000
-38.458672,31.939465,-56.000000,30.000000,14.000000
-62.647926,31.937035,-55.000000,28.000000,14.000000
-84.376175,31.939314,-55.000000,29.000000,17.000000
-96.725113,31.946175,-58.000000,28.000000,15.000000
-90.921837,31.957132,-52.000000,31.000000,17.000000
-65.343719,31.971266,-56.000000,31.000000,14.000000
-32.452553,31.958355,-56.000000,29.000000,17.000000
-9.090047,31.948481,-57.000000,29.000000,15.000000
0.276611,31.942423,-52.000000,32.000000,17.000000
4.657838,31.940554,-53.000000,33.000000,16.000000
12.112947,31.942913,-57.000000,31.000000,12.000000
20.844446,31.949247,-53.000000,30.000000,16.000000
23.665491,31.959007,-54.000000,30.000000,18.000000
17.250385,31.971266,-55.000000,30.000000,16.000000
7.654626,31.955873,-54.000000,30.000000,17.000000
5.513636,31.943048,-54.000000,29.000000,16.000000
16.381170,31.933773,-56.000000,30.000000,15.000000
37.550316,31.928665,-54.000000,31.000000,16.000000
60.750530,31.928024,-53.000000,29.000000,18.000000
76.661110,31.931866,-54.000000,29.000000,17.000000
80.981224,31.939857,-56.000000,31.000000,15.000000
75.316650,31.951252,-52.000000,30.000000,19.000000
60.108028,31.935991,-58.000000,32.000000,12.000000
33.849972,31.924305,-55.000000,32.000000,14.000000
0.165462,31.917095,-53.000000,31.000000,15.000000
-33.511471,31.914818,-55.000000,31.000000,14.000000
-62.940479,31.917542,-56.000000,29.000000,14.000000
-87.435982,31.925005,-57.000000,30.000000,13.000000
-106.862190,31.936588,-59.000000,29.000000,12.000000
-118.651222,31.951252,-54.000000,29.000000,15.000000
-116.770401,31.938692,-55.000000,29.000000,16.000000
-97.945244,31.928951,-55.000000,28.000000,15.000000
-66.872673,31.922821,-54.000000,30.000000,16.000000
-31.470274,31.920725,-56.000000,29.000000,15.000000
0.426615,31.922798,-56.000000,28.000000,15.000000
19.373119,31.928919,-56.000000,30.000000,16.000000
21.461203,31.938667,-57.000000,31.000000,14.000000
16.089157,31.951252,-52.000000,32.000000,15.000000
16.176395,31.936634,-54.000000,33.000000,15.000000
23.852247,31.925114,-54.000000,33.000000,14.000000
32.330379,31.917713,-53.000000,32.000000,16.000000
37.544525,31.915033,-54.000000,30.000000,17.000000
41.603859,31.917326,-54.000000,30.000000,16.000000
46.034374,31.924505,-54.000000,30.000000,17.000000
47.338715,31.936113,-53.000000,31.000000,17.000000
42.277195,31.951252,-56.000000,30.000000,15.000000
34.560497,31.939713,-56.000000,32.000000,15.000000
31.127077,31.931578,-54.000000,31.000000,17.000000
32.842728,31.927622,-53.000000,32.000000,16.000000
33.795219,31.928198,-55.000000,31.000000,17.000000
29.109497,31.933311,-56.000000,31.000000,15.000000
18.490101,31.942671,-52.000000,31.000000,15.000000
2.677679,31.955656,-54.000000,29.000000,15.000000
-16.748522,31.971266,-56.000000,31.000000,13.000000
-33.454735,31.959255,-54.000000,32.000000,16.000000
-39.327473,31.949743,-55.000000,28.000000,14.000000
-34.262230,31.943607,-61.000000,32.000000,12.000000
-28.613466,31.941360,-55.000000,29.000000,15.000000
-32.432739,31.943220,-54.000000,30.000000,15.000000
-43.964497,31.949133,-54.000000,30.000000,15.000000
-50.400513,31.958733,-55.000000,28.000000,16.000000
-40.330956,31.971266,-53.000000,30.000000,17.000000
-16.096445,31.956701,-57.000000,29.000000,14.000000
8.166761,31.945328,-55.000000,29.000000,17.000000
20.779240,31.938135,-56.000000,30.000000,14.000000
21.655199,31.935671,-54.000000,30.000000,15.000000
17.553747,31.938114,-55.000000,33.000000,14.000000
13.251709,31.945295,-55.000000,32.000000,13.000000
9.897990,31.956675,-53.000000,33.000000,17.000000
8.004489,31.971266,-56.000000,34.000000,14.000000
8.434657,31.958780,-54.000000,30.000000,16.000000
11.346435,31.949242,-51.000000,31.000000,18.000000
16.060070,31.943392,-55.000000,31.000000,15.000000
21.900064,31.941578,-55.000000,29.000000,16.000000
28.696877,31.943838,-54.000000,31.000000,14.000000
36.724209,31.949944,-56.000000,31.000000,14.000000
45.240971,31.959377,-54.000000,32.000000,17.000000
51.056126,31.971266,-55.000000,32.000000,16.000000
51.339798,31.955511,-53.000000,30.000000,16.000000
45.540535,31.942383,-55.000000,31.000000,18.000000
32.836857,31.932909,-59.000000,30.000000,13.000000
13.691025,31.927729,-54.000000,29.000000,15.000000
-5.786843,31.927160,-55.000000,30.000000,14.000000
-19.048384,31.931200,-57.000000,30.000000,14.000000
-26.911427,31.939495,-55.000000,28.000000,13.000000
-33.902023,31.951252,-57.000000,29.000000,14.000000
-42.475464,31.936361,-53.000000,29.000000,16.000000
-53.772083,31.924999,-59.000000,31.000000,15.000000
-66.023392,31.918020,-56.000000,29.000000,14.000000
-70.449661,31.915840,-55.000000,27.000000,14.000000
-58.647747,31.918510,-54.000000,30.000000,16.000000
-34.685661,31.925768,-54.000000,29.000000,16.000000
-10.672369,31.937014,-54.000000,31.000000,16.000000
6.993062,31.951252,-55.000000,30.000000,15.000000
18.797407,31.938236,-55.000000,32.000000,15.000000
25.049324,31.928074,-55.000000,31.000000,16.000000
26.730007,31.921619,-55.000000,31.000000,16.000000
28.239956,31.919359,-52.000000,32.000000,15.000000
31.389112,31.921471,-53.000000,31.000000,17.000000
32.844406,31.927841,-56.000000,30.000000,15.000000
30.661039,31.938046,-52.000000,30.000000,17.000000
26.528027,31.951252,-54.000000,32.000000,16.000000
21.188583,31.937359,-55.000000,31.000000,16.000000
14.471375,31.926563,-54.000000,32.000000,15.000000
9.317570,31.919775,-53.000000,30.000000,17.000000
9.762457,31.917490,-53.000000,33.000000,16.000000
14.913238,31.919847,-54.000000,32.000000,16.000000
18.847277,31.926674,-55.000000,31.000000,16.000000
15.862185,31.937450,-55.000000,32.000000,15.000000
3.851301,31.951252,-54.000000,29.000000,15.000000
-15.249384,31.937889,-55.000000,29.000000,16.000000
-36.285305,31.927490,-54.000000,30.000000,18.000000
-54.098457,31.920923,-55.000000,29.000000,16.000000
-65.665504,31.918669,-54.000000,30.000000,14.000000
-67.861267,31.920881,-56.000000,31.000000,15.000000
-57.779453,31.927423,-57.000000,32.000000,14.000000
-39.055485,31.937836,-53.000000,31.000000,15.000000
-21.747799,31.951252,-55.000000,29.000000,17.000000
-12.316976,31.937542,-53.000000,30.000000,17.000000
-9.565363,31.926880,-54.000000,30.000000,17.000000
-11.172570,31.920166,-56.000000,28.000000,17.000000
-16.287849,31.917889,-54.000000,31.000000,17.000000
-21.189865,31.920195,-55.000000,31.000000,16.000000
-20.426992,31.926926,-54.000000,31.000000,16.000000
-13.275279,31.937578,-54.000000,33.000000,16.000000
-3.086285,31.951252,-54.000000,32.000000,14.000000
8.652246,31.937775,-53.000000,32.000000,17.000000
21.486570,31.927286,-53.000000,33.000000,17.000000
31.829035,31.920670,-55.000000,29.000000,16.000000
35.700890,31.918406,-54.000000,32.000000,18.000000
33.455318,31.920649,-56.000000,31.000000,16.000000
27.876709,31.927254,-55.000000,30.000000,15.000000
20.564810,31.937748,-54.000000,31.000000,16.000000
13.448946,31.951252,-54.000000,32.000000,17.000000
9.915663,31.937626,-52.000000,33.000000,20.000000
10.982281,31.927032,-56.000000,33.000000,15.000000
12.003539,31.920366,-56.000000,31.000000,14.000000
4.702618,31.918106,-54.000000,30.000000,16.000000
-14.968377,31.920397,-55.000000,29.000000,15.000000
-38.821640,31.927080,-55.000000,29.000000,17.000000
-50.355446,31.937664,-52.000000,29.000000,18.000000
-40.953381,31.951252,-56.000000,30.000000,16.000000
-18.279472,31.937691,-56.000000,31.000000,14.000000
3.429623,31.927135,-52.000000,31.000000,15.000000
15.018476,31.920477,-57.000000,31.000000,14.000000
14.014292,31.918201,-54.000000,31.000000,14.000000
2.869255,31.920462,-54.000000,29.000000,17.000000
-12.152396,31.927113,-54.000000,30.000000,17.000000
-24.364080,31.937672,-56.000000,28.000000,15.000000
-30.316652,31.951252,-56.000000,31.000000,16.000000
-30.163477,31.937700,-54.000000,30.000000,15.000000
-25.588461,31.927170,-54.000000,29.000000,16.000000
-17.251320,31.920542,-53.000000,31.000000,18.000000
-4.990763,31.918297,-55.000000,31.000000,15.000000
8.941162,31.920572,-54.000000,33.000000,16.000000
19.118420,31.927216,-54.000000,31.000000,15.000000
21.591228,31.937737,-55.000000,33.000000,15.000000
17.193563,31.951252,-54.000000,31.000000,16.000000
9.016059,31.937614,-54.000000,30.000000,16.000000
-0.412281,31.926994,-53.000000,30.000000,18.000000
-8.923243,31.920290,-53.000000,30.000000,17.000000
-14.434425,31.917995,-55.000000,32.000000,15.000000
-16.029001,31.920269,-55.000000,31.000000,16.000000
-15.348738,31.926962,-54.000000,32.000000,16.000000
-15.284061,31.937590,-52.000000,31.000000,17.000000
-14.889285,31.951252,-54.000000,31.000000,15.000000
-9.031919,31.937773,-55.000000,31.000000,15.000000
4.195433,31.927301,-53.000000,31.000000,17.000000
20.718534,31.920710,-58.000000,32.000000,14.000000
35.691254,31.918472,-54.000000,30.000000,16.000000
44.996075,31.920729,-51.000000,30.000000,19.000000
43.904434,31.927332,-56.000000,30.000000,14.000000
31.512568,31.937798,-56.000000,28.000000,16.000000
13.190198,31.951252,-55.000000,31.000000,15.000000
-5.989685,31.937546,-56.000000,30.000000,15.000000
-26.205362,31.926861,-55.000000,31.000000,15.000000
-47.974270,31.920109,-53.000000,30.000000,16.000000
-65.913162,31.917791,-55.000000,28.000000,16.000000
-71.858902,31.920073,-53.000000,30.000000,17.000000
-63.739639,31.926805,-56.000000,30.000000,16.000000
-47.588631,31.937500,-55.000000,30.000000,14.000000
-29.879114,31.951252,-55.000000,31.000000,16.000000
-12.664930,31.937872,-55.000000,32.000000,17.000000
2.635045,31.927492,-55.000000,32.000000,14.000000
12.377351,31.920973,-53.000000,32.000000,16.000000
14.788371,31.918774,-58.000000,33.000000,13.000000
12.883700,31.921026,-52.000000,31.000000,17.000000
10.255620,31.927572,-53.000000,32.000000,17.000000
7.032373,31.937937,-55.000000,30.000000,16.000000
0.984262,31.951252,-54.000000,30.000000,17.000000
-8.943292,31.937384,-52.000000,31.000000,18.000000
-18.349586,31.926537,-55.000000,31.000000,15.000000
-17.766397,31.919647,-53.000000,32.000000,16.000000
-1.918048,31.917246,-53.000000,32.000000,18.000000
22.363409,31.919519,-57.000000,32.000000,15.000000
42.835567,31.926336,-54.000000,32.000000,18.000000
53.806660,31.937218,-55.000000,31.000000,16.000000
56.700222,31.951252,-53.000000,31.000000,15.000000
54.004032,31.938236,-56.000000,32.000000,16.000000
48.222569,31.928259,-56.000000,31.000000,14.000000
42.657093,31.922121,-53.000000,29.000000,17.000000
38.615932,31.920206,-52.000000,29.000000,17.000000
34.161884,31.922569,-53.000000,29.000000,14.000000
27.915262,31.928967,-55.000000,29.000000,16.000000
20.826372,31.938839,-55.000000,31.000000,14.000000
13.081564,31.951252,-55.000000,30.000000,15.000000
3.322414,31.936041,-54.000000,31.000000,17.000000
-8.515127,31.923384,-53.000000,30.000000,16.000000
-20.711363,31.914242,-55.000000,30.000000,17.000000
-31.161118,31.909199,-53.000000,29.000000,18.000000
-37.540127,31.908543,-56.000000,29.000000,16.000000
-38.923443,31.912279,-55.000000,32.000000,17.000000
-37.065212,31.920088,-54.000000,31.000000,15.000000
-33.353767,31.931238,-53.000000,34.000000,16.000000
-27.044506,31.915714,-54.000000,34.000000,16.000000
-19.156448,31.903772,-55.000000,33.000000,14.000000
-13.909174,31.896362,-53.000000,31.000000,16.000000
-14.404175,31.893976,-54.000000,30.000000,18.000000
-20.096106,31.896717,-55.000000,31.000000,17.000000
-27.010710,31.904331,-54.000000,31.000000,16.000000
-27.507313,31.916195,-52.000000,31.000000,16.000000
-14.408969,31.931238,-54.000000,31.000000,16.000000
10.169128,31.919117,-55.000000,32.000000,17.000000
34.573261,31.909800,-55.000000,32.000000,16.000000
49.334167,31.904005,-53.000000,32.000000,16.000000
53.733555,31.902096,-55.000000,31.000000,16.000000
50.426899,31.904156,-55.000000,32.000000,16.000000
41.753780,31.910030,-53.000000,29.000000,17.000000
31.757360,31.919310,-54.000000,30.000000,15.000000
24.159214,31.931238,-57.000000,30.000000,14.000000
18.666426,31.915859,-56.000000,30.000000,15.000000
14.212267,31.903559,-55.000000,28.000000,16.000000
11.624522,31.895485,-56.000000,29.000000,14.000000
9.971892,31.892368,-53.000000,29.000000,18.000000
5.127974,31.894579,-55.000000,30.000000,15.000000
-5.398355,31.902136,-56.000000,30.000000,15.000000
-18.702730,31.914648,-53.000000,30.000000,18.000000
-28.508739,31.931238,-55.000000,28.000000,16.000000
-31.877441,31.921675,-54.000000,30.000000,16.000000
-32.867569,31.915953,-59.000000,31.000000,15.000000
-35.582783,31.914728,-57.000000,32.000000,16.000000
-37.192894,31.918201,-52.000000,27.000000,17.000000
-34.297798,31.926210,-53.000000,31.000000,19.000000
-29.954517,31.938295,-54.000000,34.000000,17.000000
-29.062859,31.953688,-57.000000,28.000000,15.000000
-32.704613,31.971266,-51.000000,34.000000,18.000000
-38.057858,31.960714,-54.000000,31.000000,17.000000
-39.532463,31.952112,-52.000000,33.000000,19.000000
-33.071476,31.946360,-52.000000,32.000000,18.000000
-20.244789,31.944035,-51.000000,30.000000,18.000000
-4.325102,31.945454,-53.000000,33.000000,17.000000
14.168570,31.950689,-53.000000,32.000000,18.000000
34.700878,31.959505,-51.000000,31.000000,19.000000
53.116119,31.971266,-56.000000,32.000000,17.000000
62.830566,31.956055,-56.000000,31.000000,17.000000
60.385410,31.944218,-56.000000,31.000000,16.000000
50.504787,31.936785,-53.000000,31.000000,17.000000
42.151440,31.934305,-53.000000,30.000000,16.000000
39.528625,31.936934,-55.000000,29.000000,17.000000
40.505024,31.944450,-55.000000,31.000000,16.000000
41.163101,31.956245,-53.000000,29.000000,17.000000
38.111343,31.971266,-56.000000,28.000000,15.000000
29.513121,31.959179,-56.000000,31.000000,15.000000
16.150486,31.949940,-55.000000,30.000000,17.000000
0.356545,31.944256,-55.000000,31.000000,16.000000
-17.189238,31.942467,-54.000000,30.000000,16.000000
-37.783619,31.944620,-54.000000,29.000000,17.000000
-59.782246,31.950514,-55.000000,30.000000,16.000000
-76.048172,31.959673,-55.000000,30.000000,15.000000
-80.548233,31.971266,-57.000000,31.000000,16.000000
-75.017372,31.955257,-54.000000,31.000000,17.000000
-65.845207,31.941933,-54.000000,31.000000,17.000000
-57.670555,31.932346,-52.000000,31.000000,18.000000
-51.800072,31.927145,-50.000000,30.000000,19.000000
-46.430214,31.926640,-56.000000,34.000000,14.000000
-36.798832,31.930817,-54.000000,31.000000,17.000000
-18.776558,31.939297,-53.000000,32.000000,17.000000
4.992954,31.951252,-53.000000,31.000000,17.000000
25.899807,31.936565,-52.000000,32.000000,18.000000
37.911293,31.925365,-53.000000,30.000000,16.000000
42.380066,31.918486,-54.000000,34.000000,16.000000
44.174652,31.916332,-55.000000,31.000000,18.000000
45.637939,31.918957,-55.000000,32.000000,16.000000
44.769527,31.926104,-50.000000,31.000000,20.000000
38.770092,31.937193,-52.000000,29.000000,19.000000
28.725294,31.951252,-52.000000,30.000000,21.000000
18.611530,31.938078,-55.000000,31.000000,18.000000
10.939375,31.927782,-58.000000,31.000000,15.000000
7.129188,31.921242,-54.000000,31.000000,16.000000
9.198961,31.918951,-55.000000,30.000000,15.000000
15.185993,31.921091,-55.000000,31.000000,14.000000
16.516342,31.927549,-55.000000,29.000000,16.000000
7.179384,31.937887,-54.000000,30.000000,15.000000
-7.737711,31.951252,-58.000000,30.000000,16.000000
-19.504524,31.937550,-53.000000,30.000000,19.000000
-27.242674,31.926920,-53.000000,29.000000,16.000000
-35.129738,31.920256,-54.000000,29.000000,17.000000
-42.827263,31.918026,-57.000000,30.000000,15.000000
-46.283760,31.920359,-56.000000,29.000000,16.000000
-45.482880,31.927078,-54.000000,31.000000,18.000000
-43.897144,31.937677,-55.000000,31.000000,15.000000
-42.123802,31.951252,-54.000000,33.000000,18.000000
-38.761230,31.937674,-55.000000,33.000000,16.000000
-33.223793,31.927073,-53.000000,33.000000,17.000000
-22.441608,31.920355,-53.000000,35.000000,17.000000
-2.409173,31.918026,-55.000000,31.000000,14.000000
23.253363,31.920259,-54.000000,30.000000,17.000000
43.798126,31.926928,-53.000000,31.000000,19.000000
52.365498,31.937555,-53.000000,30.000000,19.000000
51.206383,31.951252,-53.000000,32.000000,17.000000
45.998238,31.937880,-53.000000,31.000000,16.000000
39.559002,31.927534,-53.000000,32.000000,18.000000
32.407139,31.921064,-53.000000,31.000000,19.000000
26.090240,31.918915,-54.000000,31.000000,20.000000
22.233349,31.921198,-51.000000,32.000000,20.000000
20.868681,31.927736,-54.000000,30.000000,18.000000
21.565172,31.938044,-55.000000,32.000000,16.000000
22.325258,31.951252,-54.000000,33.000000,17.000000
19.212090,31.937277,-55.000000,31.000000,16.000000
10.599838,31.926310,-52.000000,29.000000,18.000000
-1.879382,31.919312,-54.000000,30.000000,18.000000
-15.849319,31.916836,-56.000000,29.000000,15.000000
-28.709089,31.919098,-54.000000,30.000000,16.000000
-39.401878,31.925982,-53.000000,30.000000,16.000000
-50.243988,31.937008,-55.000000,31.000000,16.000000
-63.120758,31.951252,-53.000000,31.000000,17.000000
-76.662132,31.938490,-55.000000,30.000000,17.000000
-89.546844,31.928766,-56.000000,31.000000,16.000000
-101.101303,31.922840,-55.000000,30.000000,17.000000
-107.953957,31.921049,-56.000000,30.000000,17.000000
-105.364334,31.923409,-54.000000,30.000000,18.000000
-91.545967,31.929655,-55.000000,32.000000,16.000000
-68.316864,31.939240,-57.000000,33.000000,13.000000
-38.495014,31.951252,-54.000000,32.000000,16.000000
-4.463492,31.935587,-52.000000,33.000000,16.000000
30.473034,31.922497,-51.000000,32.000000,18.000000
61.310112,31.913015,-54.000000,33.000000,18.000000
83.060600,31.907795,-56.000000,33.000000,16.000000
94.036926,31.907171,-52.000000,30.000000,18.000000
98.008156,31.911171,-55.000000,32.000000,18.000000
101.062149,31.919453,-55.000000,30.000000,16.000000
105.093346,31.931238,-48.000000,35.000000,21.000000
106.445923,31.916426,-49.000000,31.000000,21.000000
100.710762,31.905169,-54.000000,33.000000,19.000000
86.700912,31.898300,-52.000000,33.000000,19.000000
67.296295,31.896202,-57.000000,29.000000,16.000000
48.086758,31.898901,-54.000000,31.000000,17.000000
33.327732,31.906109,-53.000000,31.000000,20.000000
23.017433,31.917217,-51.000000,30.000000,21.000000
14.801802,31.931238,-51.000000,30.000000,16.000000
7.531622,31.917959,-59.000000,31.000000,17.000000
1.557710,31.907518,-48.000000,31.000000,18.000000
-4.042971,31.900826,-52.000000,32.000000,18.000000
-13.387325,31.898413,-59.000000,31.000000,15.000000
-29.570589,31.900503,-54.000000,32.000000,16.000000
-47.766991,31.907022,-52.000000,29.000000,20.000000
-58.138786,31.917551,-53.000000,30.000000,18.000000
-56.424961,31.931238,-56.000000,30.000000,17.000000
-46.515686,31.917946,-54.000000,29.000000,20.000000
-34.414356,31.907785,-53.000000,32.000000,16.000000
-23.455791,31.901569,-55.000000,30.000000,17.000000
-13.349566,31.899679,-53.000000,33.000000,17.000000
-2.643206,31.902142,-53.000000,33.000000,18.000000
7.844071,31.908678,-54.000000,33.000000,16.000000
16.287233,31.918701,-54.000000,34.000000,17.000000
22.746691,31.931238,-53.000000,31.000000,17.000000
27.757538,31.916117,-54.000000,31.000000,18.000000
31.316914,31.903500,-54.000000,31.000000,18.000000
34.370533,31.894348,-53.000000,30.000000,19.000000
36.956776,31.889263,-51.000000,32.000000,19.000000
36.845837,31.888556,-55.000000,31.000000,16.000000
32.739517,31.892250,-54.000000,33.000000,18.000000
25.413597,31.900047,-51.000000,32.000000,19.000000
15.792685,31.911224,-53.000000,31.000000,18.000000
4.609267,31.895777,-54.000000,31.000000,19.000000
-8.523681,31.883942,-54.000000,31.000000,18.000000
-25.919092,31.876642,-52.000000,30.000000,18.000000
-48.358688,31.874338,-54.000000,30.000000,17.000000
-72.573807,31.877108,-54.000000,31.000000,18.000000
-93.301826,31.884672,-55.000000,30.000000,18.000000
-104.619766,31.896399,-54.000000,29.000000,16.000000
-102.225639,31.911224,-56.000000,30.000000,16.000000
-88.022606,31.898840,-54.000000,30.000000,16.000000
-69.567917,31.889246,-52.000000,31.000000,18.000000
-54.569263,31.883209,-53.000000,29.000000,18.000000
-47.433434,31.881147,-56.000000,29.000000,17.000000
-47.077309,31.883188,-54.000000,31.000000,19.000000
-46.643490,31.889214,-51.000000,31.000000,19.000000
-39.965412,31.898815,-55.000000,30.000000,16.000000
-26.776005,31.911224,-56.000000,32.000000,16.000000
-8.871038,31.896435,-55.000000,33.000000,17.000000
12.713592,31.884758,-53.000000,32.000000,16.000000
35.116173,31.877243,-53.000000,33.000000,17.000000
54.423656,31.874514,-52.000000,33.000000,18.000000
68.955307,31.876827,-55.000000,32.000000,16.000000
78.002296,31.884104,-54.000000,31.000000,16.000000
79.873642,31.895876,-51.000000,31.000000,18.000000
74.859291,31.911224,-53.000000,31.000000,19.000000
66.621918,31.899920,-54.000000,31.000000,17.000000
58.445786,31.891998,-54.000000,31.000000,16.000000
51.415920,31.888201,-52.000000,31.000000,19.000000
46.139027,31.888853,-53.000000,31.000000,19.000000
42.162926,31.893944,-54.000000,31.000000,18.000000
35.916367,31.903170,-54.000000,31.000000,19.000000
23.582016,31.915926,-54.000000,32.000000,16.000000
7.697516,31.931238,-57.000000,31.000000,15.000000
-1.943433,31.918909,-52.000000,32.000000,18.000000
2.912695,31.909092,-55.000000,31.000000,17.000000
19.612511,31.902718,-57.000000,30.000000,15.000000
37.063591,31.900347,-52.000000,30.000000,16.000000
46.863514,31.902229,-55.000000,29.000000,17.000000
47.764542,31.908323,-57.000000,31.000000,16.000000
42.106365,31.918257,-55.000000,33.000000,16.000000
33.214085,31.931238,-56.000000,30.000000,16.000000
24.130785,31.917187,-53.000000,30.000000,16.000000
15.734304,31.906307,-53.000000,31.000000,18.000000
7.853236,31.899504,-57.000000,30.000000,16.000000
2.345528,31.897253,-55.000000,30.000000,16.000000
1.444448,31.899675,-52.000000,29.000000,18.000000
3.828735,31.906570,-55.000000,32.000000,16.000000
6.613631,31.917404,-53.000000,31.000000,17.000000
9.576920,31.931238,-55.000000,32.000000,16.000000
13.626570,31.917896,-52.000000,31.000000,17.000000
17.345041,31.907488,-55.000000,33.000000,16.000000
18.898336,31.900894,-56.000000,33.000000,15.000000
18.756752,31.898605,-51.000000,33.000000,17.000000
16.767834,31.900791,-52.000000,31.000000,18.000000
10.929034,31.907331,-55.000000,32.000000,17.000000
2.314639,31.917768,-54.000000,31.000000,18.000000
-5.106940,31.931238,-53.000000,32.000000,19.000000
-9.925574,31.917622,-55.000000,32.000000,16.000000
-11.078590,31.907059,-49.000000,31.000000,21.000000
-5.117261,31.900431,-50.000000,32.000000,21.000000
6.506369,31.898207,-53.000000,31.000000,18.000000
16.169577,31.900518,-54.000000,32.000000,18.000000
20.997021,31.907192,-56.000000,32.000000,16.000000
24.757816,31.917730,-53.000000,31.000000,16.000000
28.734468,31.931238,-54.000000,31.000000,16.000000
29.952217,31.917583,-55.000000,31.000000,16.000000
26.113995,31.906919,-54.000000,30.000000,17.000000
17.368608,31.900158,-53.000000,29.000000,16.000000
6.013535,31.897810,-56.000000,29.000000,17.000000
-4.105615,31.900057,-53.000000,33.000000,17.000000
-10.992047,31.906763,-56.000000,31.000000,15.000000
-16.586149,31.917456,-56.000000,32.000000,15.000000
-23.167656,31.931238,-52.000000,32.000000,17.000000
-29.984209,31.917948,-54.000000,29.000000,16.000000
-35.167980,31.907681,-55.000000,29.000000,17.000000
-38.326492,31.901276,-54.000000,31.000000,18.000000
-39.152519,31.899162,-55.000000,29.000000,18.000000
-36.152988,31.901447,-55.000000,33.000000,14.000000
-29.820765,31.907946,-54.000000,31.000000,17.000000
-24.114403,31.918165,-54.000000,32.000000,15.000000
-22.383570,31.931238,-55.000000,33.000000,15.000000
-23.991861,31.917095,-55.000000,32.000000,17.000000
-26.754496,31.905928,-54.000000,33.000000,15.000000
-30.158230,31.898722,-52.000000,31.000000,18.000000
-34.712685,31.896069,-53.000000,31.000000,18.000000
-40.710651,31.898232,-54.000000,31.000000,18.000000
-46.671425,31.905159,-53.000000,30.000000,19.000000
-47.501862,31.916445,-54.000000,31.000000,16.000000
-38.350273,31.931238,-53.000000,31.000000,17.000000
-21.244720,31.919426,-52.000000,32.000000,19.000000
-3.239215,31.911081,-55.000000,33.000000,16.000000
10.653084,31.907007,-50.000000,30.000000,19.000000
18.372356,31.907562,-52.000000,32.000000,18.000000
18.334885,31.912748,-54.000000,32.000000,17.000000
11.495946,31.922255,-55.000000,32.000000,16.000000
2.682110,31.935432,-56.000000,31.000000,15.000000
-3.598992,31.951252,-52.000000,30.000000,19.000000
-6.157185,31.939478,-55.000000,31.000000,17.000000
-5.524314,31.930147,-55.000000,29.000000,16.000000
-2.727741,31.924122,-54.000000,29.000000,17.000000
1.381195,31.921902,-57.000000,31.000000,15.000000
7.272955,31.923706,-55.000000,29.000000,17.000000
14.022226,31.929493,-53.000000,32.000000,18.000000
17.297417,31.938917,-55.000000,30.000000,16.000000
14.857026,31.951252,-54.000000,30.000000,18.000000
9.465622,31.936537,-53.000000,31.000000,17.000000
3.429544,31.925039,-53.000000,29.000000,18.000000
-2.384422,31.917761,-53.000000,31.000000,19.000000
-4.698766,31.915268,-55.000000,30.000000,13.000000
-2.089751,31.917740,-55.000000,30.000000,17.000000
0.819471,31.925007,-53.000000,32.000000,17.000000
-1.075366,31.936512,-54.000000,32.000000,16.000000
-8.216525,31.951252,-54.000000,32.000000,17.000000
-16.571959,31.938953,-54.000000,32.000000,14.000000
-19.288908,31.929579,-53.000000,31.000000,18.000000
-11.621984,31.923843,-53.000000,32.000000,19.000000
3.867476,31.922077,-54.000000,29.000000,17.000000
20.195641,31.924309,-53.000000,31.000000,17.000000
32.405529,31.930309,-54.000000,30.000000,18.000000
39.122616,31.939575,-54.000000,31.000000,18.000000
41.281281,31.951252,-54.000000,32.000000,17.000000
40.376995,31.935307,-57.000000,31.000000,16.000000
36.464706,31.922001,-52.000000,31.000000,18.000000
29.266039,31.912395,-52.000000,31.000000,19.000000
20.404856,31.907152,-54.000000,32.000000,19.000000
12.480011,31.906603,-56.000000,31.000000,15.000000
7.290401,31.910751,-54.000000,31.000000,15.000000
4.972437,31.919235,-54.000000,30.000000,15.000000
3.684154,31.931238,-55.000000,30.000000,15.000000
0.533781,31.916653,-56.000000,31.000000,16.000000
-6.038914,31.905573,-55.000000,31.000000,15.000000
-15.118371,31.898809,-54.000000,30.000000,17.000000
-24.802382,31.896736,-55.000000,31.000000,17.000000
-33.807072,31.899380,-53.000000,31.000000,18.000000
-41.320480,31.906467,-55.000000,30.000000,17.000000
-46.571785,31.917406,-54.000000,30.000000,20.000000
-49.430740,31.931238,-54.000000,31.000000,19.000000
-50.564037,31.917801,-54.000000,31.000000,18.000000
-50.663124,31.907228,-56.000000,32.000000,16.000000
-50.126541,31.900446,-53.000000,31.000000,17.000000
-47.219849,31.898003,-52.000000,32.000000,18.000000
-37.220692,31.900126,-53.000000,33.000000,18.000000
-19.038265,31.906733,-53.000000,32.000000,18.000000
-0.054973,31.917393,-52.000000,33.000000,19.000000
12.217940,31.931238,-55.000000,33.000000,16.000000
18.576954,31.918125,-53.000000,32.000000,19.000000
23.065678,31.908121,-52.000000,31.000000,19.000000
25.562790,31.902016,-53.000000,32.000000,18.000000
24.416946,31.900171,-53.000000,31.000000,19.000000
21.541700,31.902607,-54.000000,33.000000,18.000000
20.546375,31.909044,-53.000000,32.000000,18.000000
21.965086,31.918903,-53.000000,31.000000,18.000000
22.583866,31.931238,-54.000000,31.000000,18.000000
19.880291,31.915916,-52.000000,32.000000,19.000000
14.958546,31.903118,-52.000000,32.000000,18.000000
10.596310,31.893829,-53.000000,32.000000,18.000000
8.205854,31.888680,-55.000000,32.000000,16.000000
6.661563,31.887993,-53.000000,32.000000,16.000000
4.119619,31.891800,-52.000000,31.000000,19.000000
0.339100,31.899792,-57.000000,31.000000,15.000000
-3.684405,31.911224,-52.000000,31.000000,17.000000
-6.746320,31.896072,-52.000000,31.000000,19.000000
-7.603525,31.884512,-54.000000,31.000000,16.000000
-6.721535,31.877424,-55.000000,31.000000,16.000000
-6.287085,31.875229,-54.000000,31.000000,18.000000
-6.744587,31.877972,-55.000000,30.000000,18.000000
-7.621779,31.885370,-54.000000,29.000000,18.000000
-10.528081,31.896797,-56.000000,30.000000,17.000000
-15.379551,31.911224,-55.000000,32.000000,16.000000
-18.123522,31.898411,-56.000000,32.000000,16.000000
-16.247759,31.888399,-53.000000,33.000000,17.000000
-11.066826,31.882030,-50.000000,33.000000,18.000000
-4.537512,31.879784,-51.000000,32.000000,18.000000
1.072739,31.881838,-52.000000,33.000000,17.000000
3.705869,31.888103,-54.000000,32.000000,16.000000
4.193291,31.898167,-54.000000,31.000000,18.000000
4.868076,31.911224,-52.000000,32.000000,18.000000
6.525869,31.897205,-53.000000,32.000000,17.000000
8.724616,31.886316,-52.000000,32.000000,19.000000
10.625104,31.879478,-53.000000,32.000000,17.000000
10.478636,31.877188,-54.000000,31.000000,18.000000
6.321460,31.879581,-53.000000,32.000000,18.000000
-1.380193,31.886473,-52.000000,32.000000,19.000000
-8.776320,31.897335,-53.000000,31.000000,16.000000
-12.618784,31.911224,-53.000000,32.000000,16.000000
-12.726077,31.897951,-56.000000,31.000000,17.000000
-9.047816,31.887623,-55.000000,32.000000,16.000000
-1.298001,31.881100,-52.000000,30.000000,17.000000
7.308121,31.878857,-53.000000,30.000000,19.000000
11.460510,31.881050,-55.000000,32.000000,15.000000
8.942119,31.887545,-55.000000,32.000000,15.000000
1.688463,31.897888,-55.000000,30.000000,13.000000
-5.173790,31.911224,-59.000000,30.000000,14.000000
-6.260461,31.897444,-52.000000,30.000000,21.000000
-2.981658,31.886723,-56.000000,31.000000,17.000000
-3.480403,31.879971,-54.000000,29.000000,16.000000
-11.647315,31.877680,-53.000000,30.000000,18.000000
-22.368441,31.880001,-58.000000,30.000000,14.000000
-28.313543,31.886768,-55.000000,28.000000,16.000000
-25.442656,31.897482,-54.000000,32.000000,16.000000
-14.404366,31.911224,-54.000000,30.000000,15.000000
-1.148866,31.897829,-56.000000,32.000000,15.000000
7.760870,31.887419,-54.000000,32.000000,16.000000
11.364609,31.880859,-53.000000,32.000000,17.000000
12.834671,31.878624,-54.000000,32.000000,17.000000
14.927163,31.880859,-54.000000,32.000000,17.000000
18.655951,31.887419,-55.000000,32.000000,15.000000
23.231873,31.897829,-53.000000,31.000000,19.000000
27.001707,31.911224,-52.000000,33.000000,19.000000
29.418156,31.897491,-55.000000,31.000000,15.000000
30.339792,31.886791,-52.000000,30.000000,17.000000
27.637936,31.880035,-54.000000,29.000000,18.000000
17.924749,31.877722,-51.000000,31.000000,21.000000
1.840602,31.880014,-57.000000,32.000000,14.000000
-13.561227,31.886761,-57.000000,32.000000,14.000000
-21.277678,31.897467,-53.000000,32.000000,15.000000
-20.629305,31.911224,-56.000000,30.000000,17.000000
-14.518651,31.897871,-55.000000,31.000000,17.000000
-6.103140,31.887508,-55.000000,30.000000,15.000000
-0.211159,31.880999,-54.000000,28.000000,17.000000
-0.732610,31.878799,-55.000000,30.000000,14.000000
-6.506866,31.881042,-56.000000,30.000000,14.000000
-14.263720,31.887575,-54.000000,30.000000,17.000000
-21.993382,31.897924,-55.000000,31.000000,15.000000
-26.937300,31.911224,-55.000000,28.000000,20.000000
-25.621897,31.897375,-53.000000,29.000000,19.000000
-17.747992,31.886555,-57.000000,28.000000,16.000000
-6.505021,31.879698,-54.000000,28.000000,18.000000
5.146940,31.877325,-55.000000,32.000000,17.000000
15.254981,31.879616,-55.000000,30.000000,17.000000
21.387785,31.886429,-55.000000,31.000000,16.000000
22.525839,31.897272,-54.000000,32.000000,16.000000
21.716467,31.911224,-53.000000,30.000000,18.000000
23.109974,31.898102,-56.000000,33.000000,15.000000
26.839716,31.887974,-53.000000,32.000000,17.000000
29.867329,31.881660,-52.000000,30.000000,19.000000
29.827150,31.879580,-54.000000,32.000000,18.000000
26.473444,31.881830,-54.000000,30.000000,18.000000
20.148434,31.888237,-53.000000,31.000000,18.000000
10.939374,31.898319,-53.000000,31.000000,18.000000
0.368386,31.911224,-54.000000,32.000000,18.000000
-7.621156,31.896900,-51.000000,32.000000,20.000000
-10.542543,31.885571,-56.000000,30.000000,17.000000
-11.611091,31.878246,-50.000000,31.000000,19.000000
-16.303963,31.875542,-54.000000,32.000000,17.000000
-24.466703,31.877728,-56.000000,31.000000,16.000000
-30.309675,31.884758,-54.000000,32.000000,18.000000
-30.598791,31.896212,-53.000000,30.000000,17.000000
-28.072206,31.911224,-54.000000,30.000000,17.000000
-25.701817,31.899639,-56.000000,30.000000,16.000000
-20.837389,31.891502,-56.000000,30.000000,15.000000
-8.436076,31.887581,-58.000000,30.000000,14.000000
9.849655,31.888210,-53.000000,29.000000,17.000000
24.949842,31.893373,-54.000000,30.000000,17.000000
31.365110,31.902752,-56.000000,29.000000,16.000000
32.255402,31.915709,-54.000000,31.000000,18.000000
30.878952,31.931238,-56.000000,31.000000,17.000000
26.049835,31.919136,-56.000000,27.000000,17.000000
19.408543,31.909494,-55.000000,30.000000,17.000000
17.114714,31.903227,-54.000000,30.000000,17.000000
20.549911,31.900881,-56.000000,30.000000,17.000000
24.499107,31.902710,-52.000000,31.000000,17.000000
26.092323,31.908682,-54.000000,31.000000,17.000000
27.156836,31.918447,-55.000000,34.000000,16.000000
28.154848,31.931238,-53.000000,32.000000,16.000000
27.235971,31.917028,-52.000000,32.000000,18.000000
23.293163,31.906015,-52.000000,32.000000,19.000000
16.404566,31.899124,-54.000000,30.000000,19.000000
7.627111,31.896843,-53.000000,32.000000,20.000000
-1.079782,31.899296,-52.000000,30.000000,19.000000
-8.717453,31.906279,-54.000000,31.000000,17.000000
-15.096107,31.917246,-52.000000,30.000000,20.000000
-20.474224,31.931238,-53.000000,32.000000,19.000000
-27.488138,31.918076,-53.000000,31.000000,20.000000
-37.620487,31.907824,-50.000000,31.000000,21.000000
-44.785145,31.901340,-53.000000,32.000000,17.000000
-40.592819,31.899097,-54.000000,31.000000,19.000000
-25.966499,31.901258,-55.000000,32.000000,16.000000
-9.776782,31.907698,-54.000000,30.000000,18.000000
1.577416,31.917973,-52.000000,29.000000,19.000000
6.454036,31.931238,-55.000000,31.000000,17.000000
4.608229,31.917423,-55.000000,30.000000,14.000000
-2.424626,31.906677,-57.000000,30.000000,16.000000
-10.761683,31.899912,-51.000000,31.000000,17.000000
-16.920916,31.897623,-53.000000,29.000000,18.000000
-20.178223,31.899956,-54.000000,31.000000,19.000000
-21.899607,31.906744,-55.000000,29.000000,17.000000
-22.792686,31.917477,-55.000000,30.000000,16.000000
-21.757240,31.931238,-53.000000,31.000000,17.000000
-18.391605,31.917879,-55.000000,29.000000,18.000000
-13.769174,31.907492,-57.000000,33.000000,15.000000
-7.936330,31.900940,-54.000000,33.000000,16.000000
-1.042148,31.898701,-53.000000,32.000000,17.000000
3.440257,31.900921,-55.000000,32.000000,16.000000
2.298974,31.907461,-51.000000,32.000000,20.000000
-2.253102,31.917856,-51.000000,31.000000,20.000000
-6.525292,31.931238,-53.000000,32.000000,16.000000
-11.069950,31.917519,-52.000000,31.000000,19.000000
-18.316923,31.906836,-52.000000,32.000000,18.000000
-26.438057,31.900097,-53.000000,32.000000,18.000000
-29.290598,31.897799,-52.000000,33.000000,19.000000
-22.738167,31.900097,-52.000000,32.000000,19.000000
-8.984061,31.906836,-55.000000,33.000000,15.000000
6.265953,31.917519,-54.000000,31.000000,17.000000
18.804911,31.931238,-53.000000,31.000000,18.000000
26.899603,31.917856,-52.000000,34.000000,17.000000
29.665262,31.907461,-53.000000,31.000000,18.000000
26.663778,31.900921,-53.000000,33.000000,16.000000
18.885742,31.898701,-52.000000,32.000000,17.000000
9.359147,31.900940,-53.000000,31.000000,17.000000
1.800761,31.907492,-55.000000,32.000000,14.000000
-1.493751,31.917879,-55.000000,31.000000,13.000000
-0.674414,31.931238,-59.000000,32.000000,12.000000
1.556570,31.917477,-53.000000,30.000000,17.000000
2.420392,31.906744,-56.000000,31.000000,15.000000
2.151494,31.899956,-55.000000,30.000000,17.000000
1.611912,31.897623,-54.000000,30.000000,16.000000
-0.687398,31.899912,-54.000000,30.000000,15.000000
-4.296703,31.906677,-54.000000,31.000000,15.000000
-4.856934,31.917423,-56.000000,30.000000,15.000000
-1.257012,31.931238,-55.000000,31.000000,15.000000
2.625195,31.917973,-53.000000,31.000000,17.000000
5.081968,31.907698,-56.000000,30.000000,16.000000
7.939239,31.901258,-55.000000,31.000000,15.000000
11.307149,31.899097,-53.000000,31.000000,18.000000
11.791057,31.901340,-52.000000,35.000000,17.000000
5.123423,31.907824,-53.000000,35.000000,17.000000
-9.545362,31.918076,-55.000000,32.000000,15.000000
-25.305460,31.931238,-53.000000,33.000000,14.000000
-30.693008,31.917246,-53.000000,30.000000,18.000000
-21.927521,31.906279,-52.000000,33.000000,18.000000
-7.835918,31.899296,-56.000000,30.000000,14.000000
0.581387,31.896843,-54.000000,31.000000,17.000000
1.184651,31.899124,-53.000000,30.000000,18.000000
-0.800384,31.906015,-53.000000,30.000000,17.000000
-0.698894,31.917028,-53.000000,31.000000,19.000000
2.336870,31.931238,-52.000000,32.000000,20.000000
8.262292,31.918447,-55.000000,30.000000,16.000000
18.288612,31.908682,-52.000000,33.000000,17.000000
31.851187,31.902710,-52.000000,33.000000,16.000000
42.709248,31.900881,-56.000000,31.000000,15.000000
43.575283,31.903227,-56.000000,31.000000,14.000000
35.172241,31.909494,-54.000000,28.000000,15.000000
25.784760,31.919136,-57.000000,29.000000,16.000000
20.994267,31.931238,-56.000000,31.000000,14.000000
18.033863,31.915709,-55.000000,30.000000,16.000000
12.353345,31.902752,-54.000000,30.000000,17.000000
4.220905,31.893373,-54.000000,29.000000,15.000000
-5.021080,31.888210,-54.000000,30.000000,17.000000
-16.054890,31.887581,-56.000000,30.000000,15.000000
-27.379457,31.891502,-54.000000,31.000000,17.000000
-36.478962,31.899639,-53.000000,32.000000,16.000000
-45.182331,31.911224,-55.000000,30.000000,15.000000
-55.443676,31.896212,-54.000000,32.000000,18.000000
-63.981083,31.884758,-55.000000,33.000000,15.000000
-68.341377,31.877728,-55.000000,32.000000,15.000000
-70.104347,31.875542,-53.000000,32.000000,17.000000
-68.061699,31.878246,-53.000000,33.000000,16.000000
-56.774384,31.885571,-54.000000,32.000000,18.000000
-33.442993,31.896900,-52.000000,33.000000,20.000000
-1.723368,31.911224,-55.000000,31.000000,16.000000
29.747452,31.898319,-54.000000,32.000000,17.000000
52.217995,31.888237,-54.000000,31.000000,17.000000
64.326256,31.881830,-52.000000,30.000000,20.000000
72.861206,31.879580,-53.000000,31.000000,19.000000
82.466408,31.881660,-53.000000,32.000000,19.000000
89.767044,31.887974,-54.000000,31.000000,20.000000
90.368507,31.898102,-52.000000,31.000000,20.000000
84.840408,31.911224,-50.000000,31.000000,19.000000
76.152908,31.897293,-53.000000,31.000000,18.000000
66.113388,31.886475,-54.000000,32.000000,16.000000
55.303230,31.879683,-53.000000,34.000000,19.000000
43.606091,31.877409,-55.000000,30.000000,17.000000
30.412395,31.879786,-56.000000,30.000000,16.000000
15.551691,31.886631,-50.000000,31.000000,18.000000
0.386422,31.897421,-57.000000,29.000000,16.000000
-12.849469,31.911224,-54.000000,32.000000,17.000000
-23.551451,31.897888,-54.000000,29.000000,17.000000
-33.441017,31.887505,-56.000000,30.000000,16.000000
-44.161598,31.880943,-52.000000,31.000000,19.000000
-54.603096,31.878683,-53.000000,30.000000,19.000000
-61.224285,31.880884,-55.000000,30.000000,16.000000
-61.718464,31.887415,-51.000000,30.000000,20.000000
-57.367668,31.897816,-57.000000,31.000000,17.000000
-50.667652,31.911224,-56.000000,30.000000,15.000000
-43.146576,31.897551,-54.000000,34.000000,16.000000
-35.438358,31.886927,-53.000000,33.000000,17.000000
-25.021616,31.880249,-52.000000,33.000000,18.000000
-7.010273,31.877996,-54.000000,34.000000,17.000000
18.957108,31.880310,-54.000000,30.000000,19.000000
46.870495,31.887018,-54.000000,31.000000,18.000000
70.922966,31.897625,-53.000000,31.000000,18.000000
89.423492,31.911224,-52.000000,30.000000,20.000000
102.746994,31.897697,-53.000000,32.000000,18.000000
110.677124,31.887159,-55.000000,32.000000,17.000000
111.715637,31.880501,-53.000000,32.000000,19.000000
104.894333,31.878214,-52.000000,32.000000,19.000000
91.723839,31.880459,-52.000000,32.000000,19.000000
74.470764,31.887094,-53.000000,33.000000,18.000000
53.925671,31.897644,-52.000000,31.000000,19.000000
30.215551,31.911224,-53.000000,32.000000,17.000000
4.163449,31.897718,-55.000000,32.000000,17.000000
-22.624357,31.887236,-55.000000,31.000000,16.000000
-48.098370,31.880651,-54.000000,30.000000,16.000000
-70.583237,31.878431,-54.000000,30.000000,18.000000
-89.219299,31.880711,-54.000000,30.000000,15.000000
-103.035034,31.887327,-53.000000,30.000000,17.000000
-111.598305,31.897793,-52.000000,30.000000,19.000000
-116.558380,31.911224,-56.000000,29.000000,16.000000
-119.347511,31.897526,-53.000000,30.000000,18.000000
-118.158798,31.886839,-52.000000,30.000000,17.000000
-110.602486,31.880077,-56.000000,29.000000,16.000000
-98.452194,31.877747,-54.000000,31.000000,18.000000
-86.527557,31.880018,-54.000000,31.000000,17.000000
-78.035278,31.886749,-55.000000,31.000000,17.000000
-73.191994,31.897453,-54.000000,32.000000,16.000000
-69.905830,31.911224,-55.000000,33.000000,16.000000
-62.347317,31.897921,-51.000000,33.000000,18.000000
-43.310196,31.887623,-54.000000,32.000000,15.000000
-13.188478,31.881174,-55.000000,34.000000,15.000000
17.171547,31.879021,-54.000000,31.000000,18.000000
37.189686,31.881277,-53.000000,31.000000,18.000000
45.992035,31.887779,-53.000000,31.000000,19.000000
49.461884,31.898048,-53.000000,30.000000,19.000000
52.202789,31.911224,-54.000000,32.000000,17.000000
54.430065,31.897242,-53.000000,31.000000,17.000000
54.491497,31.886280,-53.000000,33.000000,18.000000
51.567371,31.879301,-51.000000,31.000000,19.000000
45.316498,31.876850,-53.000000,33.000000,18.000000
37.227291,31.879129,-54.000000,32.000000,17.000000
32.073734,31.886017,-51.000000,31.000000,17.000000
32.034489,31.897024,-54.000000,31.000000,16.000000
32.549175,31.911224,-55.000000,31.000000,16.000000
29.447119,31.898441,-54.000000,29.000000,19.000000
23.189165,31.888683,-49.000000,29.000000,20.000000
13.327023,31.882715,-54.000000,28.000000,13.000000
-1.198488,31.880888,-57.000000,29.000000,17.000000
-16.740982,31.883232,-53.000000,32.000000,16.000000
-28.461273,31.889496,-56.000000,31.000000,14.000000
-36.340378,31.899130,-53.000000,32.000000,18.000000
-43.316620,31.911224,-51.000000,30.000000,19.000000
-50.598423,31.895704,-53.000000,31.000000,19.000000
-55.963551,31.882753,-53.000000,31.000000,17.000000
-56.188671,31.873381,-55.000000,30.000000,16.000000
-52.378204,31.868219,-52.000000,33.000000,19.000000
-50.095993,31.867588,-54.000000,32.000000,16.000000
-51.515057,31.871504,-55.000000,33.000000,16.000000
-50.682178,31.879635,-52.000000,33.000000,17.000000
-39.321877,31.891212,-53.000000,32.000000,16.000000
-16.440388,31.876209,-54.000000,34.000000,18.000000
9.455777,31.864761,-54.000000,31.000000,17.000000
28.786631,31.857737,-53.000000,30.000000,19.000000
38.726665,31.855551,-52.000000,30.000000,19.000000
42.582027,31.858253,-52.000000,31.000000,18.000000
46.243603,31.865574,-54.000000,31.000000,19.000000
54.341999,31.876896,-54.000000,33.000000,19.000000
65.078568,31.891212,-52.000000,32.000000,19.000000
71.394379,31.878315,-53.000000,32.000000,19.000000
69.465614,31.868240,-52.000000,34.000000,17.000000
61.867851,31.861837,-52.000000,30.000000,19.000000
53.274292,31.859587,-52.000000,33.000000,19.000000
46.459175,31.861668,-53.000000,31.000000,17.000000
40.293968,31.867977,-52.000000,29.000000,17.000000
30.920853,31.878098,-52.000000,31.000000,17.000000
16.838442,31.891212,-58.000000,30.000000,17.000000
0.836597,31.877279,-54.000000,31.000000,16.000000
-14.245645,31.866455,-52.000000,31.000000,17.000000
-28.162584,31.859657,-54.000000,31.000000,17.000000
-41.207573,31.857376,-55.000000,29.000000,18.000000
-52.853180,31.859749,-52.000000,28.000000,21.000000
-63.808319,31.866596,-53.000000,31.000000,17.000000
-74.916725,31.877396,-57.000000,31.000000,14.000000
-80.494431,31.891212,-54.000000,31.000000,18.000000
-69.808441,31.877903,-54.000000,32.000000,17.000000
-40.711697,31.867544,-50.000000,35.000000,17.000000
-3.564026,31.861000,-51.000000,31.000000,18.000000
30.309628,31.858749,-56.000000,34.000000,14.000000
54.516270,31.860949,-56.000000,32.000000,15.000000
64.806679,31.867466,-51.000000,31.000000,20.000000
60.946800,31.877840,-53.000000,30.000000,18.000000
48.002644,31.891212,-53.000000,31.000000,19.000000
31.607430,31.877504,-52.000000,31.000000,19.000000
17.205196,31.866848,-53.000000,30.000000,18.000000
11.650022,31.860140,-56.000000,31.000000,16.000000
18.610634,31.857868,-55.000000,33.000000,19.000000
34.762520,31.860180,-51.000000,33.000000,21.000000
52.186153,31.866907,-55.000000,31.000000,15.000000
61.630169,31.877554,-58.000000,31.000000,16.000000
56.640625,31.891212,-51.000000,30.000000,18.000000
39.391460,31.877760,-52.000000,32.000000,17.000000
19.848145,31.867292,-55.000000,29.000000,15.000000
6.043888,31.860687,-57.000000,28.000000,16.000000
-1.993194,31.858429,-57.000000,31.000000,18.000000
-8.876944,31.860666,-58.000000,30.000000,14.000000
-18.495300,31.867260,-54.000000,30.000000,16.000000
-32.496769,31.877733,-53.000000,31.000000,17.000000
-50.158817,31.891212,-53.000000,30.000000,16.000000
-66.501953,31.877590,-54.000000,30.000000,18.000000
-72.396629,31.866995,-54.000000,31.000000,17.000000
-62.589733,31.860317,-57.000000,29.000000,15.000000
-43.705933,31.858044,-57.000000,30.000000,15.000000
-26.745558,31.860327,-54.000000,33.000000,17.000000
-12.842957,31.867010,-53.000000,31.000000,16.000000
3.984352,31.877604,-54.000000,32.000000,16.000000
23.389107,31.891212,-52.000000,33.000000,18.000000
38.848129,31.877712,-54.000000,33.000000,15.000000
47.384239,31.867212,-54.000000,32.000000,15.000000
50.454521,31.860596,-54.000000,31.000000,18.000000
49.653267,31.858339,-52.000000,31.000000,19.000000
46.166664,31.860596,-52.000000,29.000000,20.000000
40.162685,31.867212,-54.000000,31.000000,17.000000
31.846689,31.877712,-54.000000,30.000000,17.000000
26.091209,31.891212,-54.000000,32.000000,18.000000
27.326090,31.877604,-53.000000,32.000000,17.000000
27.884113,31.867010,-52.000000,30.000000,18.000000
14.886952,31.860327,-54.000000,34.000000,20.000000
-10.459796,31.858044,-59.000000,30.000000,13.000000
-34.353851,31.860317,-50.000000,28.000000,20.000000
-49.470295,31.866995,-52.000000,31.000000,20.000000
-59.959068,31.877590,-58.000000,30.000000,14.000000
-71.095589,31.891212,-53.000000,28.000000,17.000000
-82.323814,31.877733,-54.000000,31.000000,16.000000
-87.038994,31.867260,-56.000000,30.000000,16.000000
-78.091995,31.860666,-54.000000,31.000000,16.000000
-57.586803,31.858429,-54.000000,29.000000,17.000000
-37.657185,31.860687,-54.000000,30.000000,18.000000
-27.579693,31.867292,-55.000000,29.000000,17.000000
-26.257900,31.877760,-54.000000,29.000000,18.000000
-29.452940,31.891212,-57.000000,27.000000,17.000000
-35.220196,31.877565,-53.000000,30.000000,19.000000
-39.921272,31.866930,-55.000000,32.000000,17.000000
-37.426716,31.860214,-54.000000,31.000000,17.000000
-24.996519,31.857910,-53.000000,34.000000,15.000000
-5.962587,31.860184,-52.000000,33.000000,17.000000
12.707466,31.866886,-51.000000,33.000000,18.000000
23.711826,31.877529,-53.000000,32.000000,17.000000
23.423971,31.891212,-55.000000,31.000000,17.000000
14.411083,31.877821,-52.000000,30.000000,18.000000
2.539028,31.867430,-54.000000,31.000000,18.000000
-7.396868,31.860899,-52.000000,30.000000,19.000000
-11.834533,31.858692,-56.000000,33.000000,16.000000
-8.525193,31.860943,-51.000000,32.000000,19.000000
0.267175,31.867496,-52.000000,30.000000,18.000000
9.089403,31.877876,-54.000000,31.000000,17.000000
14.506253,31.891212,-54.000000,30.000000,18.000000
12.818643,31.877436,-54.000000,30.000000,19.000000
-1.560930,31.866680,-56.000000,32.000000,14.000000
-24.971916,31.859867,-55.000000,28.000000,16.000000
-41.146431,31.857513,-52.000000,31.000000,18.000000
-38.693134,31.859795,-60.000000,31.000000,12.000000
-22.668041,31.866568,-56.000000,31.000000,17.000000
-5.443282,31.877346,-54.000000,33.000000,16.000000
3.071304,31.891212,-59.000000,30.000000,15.000000
-2.125042,31.878031,-51.000000,30.000000,19.000000
-17.581560,31.867847,-55.000000,30.000000,16.000000
-32.757652,31.861488,-52.000000,29.000000,20.000000
-39.826939,31.859383,-50.000000,30.000000,20.000000
-37.885162,31.861639,-59.000000,30.000000,15.000000
-28.937025,31.868078,-57.000000,33.000000,16.000000
-15.199736,31.878223,-51.000000,32.000000,18.000000
1.190511,31.891212,-55.000000,30.000000,16.000000
18.778008,31.877010,-53.000000,32.000000,16.000000
35.187756,31.865795,-52.000000,29.000000,18.000000
45.716812,31.858562,-54.000000,31.000000,18.000000
48.323425,31.855906,-53.000000,30.000000,18.000000
47.437492,31.858084,-54.000000,30.000000,18.000000
47.265213,31.865044,-54.000000,31.000000,17.000000
44.622723,31.876371,-57.000000,31.000000,15.000000
36.329834,31.891212,-54.000000,32.000000,17.000000
29.846821,31.879463,-53.000000,30.000000,18.000000
34.927559,31.871170,-54.000000,31.000000,18.000000
47.360210,31.867126,-56.000000,31.000000,18.000000
52.542439,31.867693,-53.000000,29.000000,18.000000
41.900040,31.872868,-54.000000,32.000000,16.000000
18.276918,31.882339,-52.000000,31.000000,18.000000
-7.572151,31.895468,-55.000000,29.000000,14.000000
-21.587645,31.911224,-58.000000,30.000000,16.000000
-17.295855,31.899403,-53.000000,29.000000,15.000000
-3.111228,31.890030,-56.000000,29.000000,15.000000
7.503761,31.883970,-57.000000,29.000000,16.000000
8.459700,31.881735,-55.000000,30.000000,16.000000
0.102440,31.883545,-53.000000,30.000000,18.000000
-14.803800,31.889359,-56.000000,29.000000,16.000000
-30.427090,31.898830,-54.000000,28.000000,18.000000
-40.295742,31.911224,-55.000000,30.000000,16.000000
-41.463127,31.896593,-56.000000,30.000000,16.000000
-34.210892,31.885170,-53.000000,32.000000,16.000000
-20.393726,31.877951,-53.000000,30.000000,16.000000
-3.535440,31.875486,-55.000000,33.000000,17.000000
11.683258,31.877951,-56.000000,31.000000,15.000000
20.945551,31.885170,-52.000000,29.000000,19.000000
22.364824,31.896593,-53.000000,32.000000,18.000000
18.747339,31.911224,-52.000000,29.000000,19.000000
15.407545,31.898830,-53.000000,30.000000,18.000000
13.235740,31.889359,-55.000000,31.000000,17.000000
7.699043,31.883545,-53.000000,29.000000,17.000000
-1.697413,31.881735,-53.000000,33.000000,19.000000
-6.783751,31.883970,-52.000000,30.000000,19.000000
-1.893645,31.890030,-54.000000,32.000000,18.000000
6.015476,31.899403,-51.000000,33.000000,21.000000
5.006222,31.911224,-58.000000,29.000000,14.000000
-7.140483,31.895468,-53.000000,29.000000,17.000000
-19.929441,31.882339,-55.000000,31.000000,17.000000
-21.035685,31.872868,-57.000000,30.000000,17.000000
-8.320429,31.867693,-56.000000,29.000000,17.000000
9.728635,31.867126,-55.000000,28.000000,15.000000
23.640633,31.871170,-54.000000,28.000000,16.000000
29.318331,31.879463,-55.000000,29.000000,16.000000
26.223255,31.891212,-53.000000,29.000000,18.000000
16.107035,31.876371,-57.000000,29.000000,18.000000
4.181364,31.865044,-52.000000,29.000000,19.000000
-3.295895,31.858084,-54.000000,28.000000,18.000000
-4.055142,31.855906,-55.000000,30.000000,16.000000
-1.186159,31.858562,-54.000000,31.000000,18.000000
1.253391,31.865795,-56.000000,30.000000,16.000000
2.649131,31.877010,-52.000000,32.000000,19.000000
4.632122,31.891212,-56.000000,31.000000,18.000000
7.219117,31.878223,-52.000000,31.000000,16.000000
8.536446,31.868078,-54.000000,32.000000,18.000000
7.405805,31.861639,-53.000000,30.000000,18.000000
3.629695,31.859383,-52.000000,30.000000,20.000000
-3.035351,31.861488,-55.000000,30.000000,16.000000
-11.993134,31.867847,-54.000000,29.000000,16.000000
-21.567045,31.878031,-53.000000,31.000000,18.000000
-29.811642,31.891212,-55.000000,32.000000,16.000000
-33.955917,31.877346,-53.000000,30.000000,17.000000
-30.863834,31.866568,-52.000000,32.000000,20.000000
-19.885292,31.859795,-56.000000,29.000000,18.000000
-4.132487,31.857513,-56.000000,28.000000,18.000000
11.025738,31.859867,-51.000000,31.000000,19.000000
20.728706,31.866680,-54.000000,30.000000,17.000000
23.794771,31.877436,-56.000000,29.000000,16.000000
22.959114,31.891212,-53.000000,31.000000,18.000000
20.548021,31.877876,-57.000000,29.000000,15.000000
16.032238,31.867496,-54.000000,29.000000,15.000000
8.361554,31.860943,-54.000000,29.000000,18.000000
-1.716082,31.858692,-53.000000,27.000000,20.000000
-10.875327,31.860899,-55.000000,30.000000,16.000000
-14.880673,31.867430,-57.000000,30.000000,14.000000
-12.655413,31.877821,-55.000000,29.000000,17.000000
-7.846064,31.891212,-56.000000,32.000000,15.000000
-5.715571,31.877529,-54.000000,30.000000,18.000000
-9.524137,31.866886,-54.000000,29.000000,18.000000
-18.083078,31.860184,-54.000000,33.000000,14.000000
-25.669502,31.857910,-51.000000,31.000000,18.000000
-27.254753,31.860214,-53.000000,30.000000,17.000000
-23.581736,31.866930,-53.000000,32.000000,19.000000
-19.456919,31.877565,-51.000000,29.000000,20.000000
-18.471262,31.891212,-54.000000,31.000000,17.000000
-19.962708,31.877760,-52.000000,30.000000,17.000000
-19.358007,31.867292,-57.000000,32.000000,16.000000
-11.290500,31.860687,-53.000000,30.000000,18.000000
5.939848,31.858429,-55.000000,31.000000,17.000000
28.705336,31.860666,-53.000000,32.000000,18.000000
50.795902,31.867260,-54.000000,30.000000,19.000000
67.455215,31.877733,-55.000000,31.000000,16.000000
75.692963,31.891212,-54.000000,30.000000,15.000000
73.307114,31.877602,-57.000000,27.000000,18.000000
62.105789,31.867016,-54.000000,31.000000,17.000000
48.428623,31.860350,-53.000000,30.000000,17.000000
36.489693,31.858086,-56.000000,30.000000,15.000000
25.706516,31.860371,-54.000000,32.000000,15.000000
15.614558,31.867048,-52.000000,29.000000,17.000000
6.165602,31.877626,-55.000000,30.000000,17.000000
-5.384221,31.891212,-54.000000,31.000000,17.000000
-20.158316,31.877695,-56.000000,30.000000,17.000000
-34.285873,31.867178,-54.000000,29.000000,17.000000
-44.782074,31.860546,-54.000000,26.000000,19.000000
-52.513908,31.858282,-55.000000,34.000000,16.000000
-58.586277,31.860538,-53.000000,31.000000,19.000000
-62.833645,31.867167,-56.000000,32.000000,14.000000
-64.964050,31.877686,-52.000000,32.000000,16.000000
-63.955154,31.891212,-55.000000,32.000000,17.000000
-57.310459,31.877644,-53.000000,31.000000,16.000000
-43.538921,31.867092,-55.000000,31.000000,18.000000
-24.944925,31.860443,-52.000000,31.000000,19.000000
-5.742275,31.858181,-58.000000,31.000000,14.000000
11.806879,31.860455,-52.000000,33.000000,19.000000
26.121107,31.867107,-54.000000,33.000000,15.000000
34.254025,31.877657,-53.000000,31.000000,17.000000
35.566448,31.891212,-54.000000,31.000000,18.000000
34.710888,31.877668,-54.000000,29.000000,19.000000
36.326351,31.867130,-53.000000,27.000000,20.000000
38.661331,31.860487,-56.000000,31.000000,15.000000
36.374973,31.858223,-55.000000,31.000000,15.000000
29.461437,31.860487,-56.000000,29.000000,14.000000
24.518040,31.867130,-56.000000,30.000000,14.000000
24.952976,31.877668,-56.000000,28.000000,15.000000
25.777269,31.891212,-56.000000,29.000000,15.000000
21.318485,31.877657,-52.000000,29.000000,19.000000
11.836910,31.867107,-57.000000,28.000000,17.000000
1.216617,31.860455,-54.000000,31.000000,16.000000
-7.049555,31.858181,-54.000000,29.000000,17.000000
-11.559393,31.860443,-56.000000,28.000000,17.000000
-14.220079,31.867092,-54.000000,31.000000,17.000000
-20.176941,31.877644,-54.000000,31.000000,18.000000
-32.202690,31.891212,-55.000000,33.000000,15.000000
-43.911484,31.877686,-54.000000,32.000000,16.000000
-43.850204,31.867167,-52.000000,31.000000,18.000000
-28.517490,31.860538,-55.000000,30.000000,17.000000
-6.463733,31.858282,-57.000000,31.000000,16.000000
12.279775,31.860546,-52.000000,30.000000,21.000000
24.761648,31.867178,-55.000000,31.000000,17.000000
32.168114,31.877695,-57.000000,29.000000,16.000000
34.368774,31.891212,-54.000000,32.000000,18.000000
29.794300,31.877626,-52.000000,29.000000,18.000000
19.982077,31.867048,-54.000000,30.000000,17.000000
11.643671,31.860371,-54.000000,33.000000,15.000000
10.730354,31.858086,-51.000000,30.000000,19.000000
16.126404,31.860350,-56.000000,31.000000,15.000000
21.882881,31.867016,-53.000000,29.000000,17.000000
22.885830,31.877602,-53.000000,30.000000,18.000000
17.425386,31.891212,-55.000000,28.000000,16.000000
7.239569,31.877733,-59.000000,29.000000,14.000000
-3.711598,31.867260,-57.000000,30.000000,17.000000
-11.787603,31.860666,-52.000000,30.000000,16.000000
-16.642632,31.858429,-55.000000,28.000000,16.000000
-23.566650,31.860687,-53.000000,30.000000,20.000000
-39.434528,31.867292,-57.000000,25.000000,15.000000
-60.913177,31.877760,-54.000000,27.000000,17.000000
-73.322304,31.891212,-55.000000,30.000000,18.000000
-66.823540,31.877565,-57.000000,29.000000,14.000000
-45.537823,31.866930,-55.000000,32.000000,15.000000
-18.952059,31.860214,-55.000000,32.000000,16.000000
5.676296,31.857910,-53.000000,31.000000,17.000000
23.288301,31.860184,-57.000000,32.000000,16.000000
33.175842,31.866886,-51.000000,29.000000,21.000000
39.142105,31.877529,-56.000000,30.000000,18.000000
42.623905,31.891212,-53.000000,30.000000,18.000000
41.648582,31.877821,-51.000000,29.000000,20.000000
37.080147,31.867430,-56.000000,31.000000,15.000000
31.219049,31.860899,-55.000000,32.000000,16.000000
23.744091,31.858692,-55.000000,29.000000,17.000000
16.864470,31.860943,-53.000000,30.000000,16.000000
17.344955,31.867496,-52.000000,31.000000,19.000000
27.070518,31.877876,-56.000000,29.000000,17.000000
38.783642,31.891212,-56.000000,32.000000,15.000000
44.433441,31.877436,-54.000000,29.000000,16.000000
42.504841,31.866680,-55.000000,30.000000,17.000000
36.775372,31.859867,-57.000000,31.000000,14.000000
31.037687,31.857513,-50.000000,28.000000,17.000000
25.555931,31.859795,-55.000000,33.000000,13.000000
19.649118,31.866568,-54.000000,30.000000,14.000000
16.176783,31.877346,-54.000000,32.000000,16.000000
18.567863,31.891212,-55.000000,30.000000,15.000000
26.256990,31.878031,-53.000000,29.000000,19.000000
36.942383,31.867847,-53.000000,28.000000,18.000000
48.670460,31.861488,-59.000000,28.000000,15.000000
56.615902,31.859383,-57.000000,29.000000,18.000000
54.334366,31.861639,-53.000000,32.000000,17.000000
42.257305,31.868078,-50.000000,30.000000,18.000000
29.231533,31.878223,-54.000000,33.000000,16.000000
23.148394,31.891212,-53.000000,32.000000,17.000000
24.451622,31.877020,-54.000000,31.000000,17.000000
29.389154,31.865818,-55.000000,31.000000,18.000000
34.143768,31.858597,-53.000000,30.000000,19.000000
34.237629,31.855947,-53.000000,30.000000,18.000000
25.997532,31.858128,-53.000000,29.000000,19.000000
11.646676,31.865082,-57.000000,31.000000,15.000000
-0.792206,31.876394,-51.000000,33.000000,20.000000
-4.901101,31.891212,-52.000000,35.000000,17.000000
-2.089365,31.879444,-54.000000,31.000000,16.000000
0.298595,31.871134,-51.000000,32.000000,18.000000
-4.014690,31.867077,-54.000000,30.000000,18.000000
-16.535952,31.867634,-55.000000,30.000000,16.000000
-35.255898,31.872810,-56.000000,30.000000,16.000000
-54.599464,31.882294,-55.000000,30.000000,16.000000
-65.154152,31.895441,-55.000000,29.000000,13.000000
-59.599445,31.911224,-59.000000,29.000000,16.000000
-40.438927,31.899443,-56.000000,31.000000,16.000000
-18.321329,31.890112,-58.000000,31.000000,14.000000
-1.972364,31.884089,-53.000000,29.000000,16.000000
7.134594,31.881872,-56.000000,31.000000,16.000000
10.592353,31.883682,-55.000000,30.000000,16.000000
10.334125,31.889473,-55.000000,30.000000,16.000000
10.293403,31.898897,-58.000000,31.000000,13.000000
13.270254,31.911224,-55.000000,28.000000,20.000000
16.898773,31.896528,-55.000000,33.000000,18.000000
18.203793,31.885042,-53.000000,30.000000,19.000000
18.902321,31.877771,-56.000000,31.000000,15.000000
22.186541,31.875282,-54.000000,30.000000,15.000000
28.302963,31.877750,-53.000000,31.000000,18.000000
34.586971,31.885010,-55.000000,31.000000,16.000000
36.060520,31.896502,-54.000000,30.000000,17.000000
26.888992,31.911224,-53.000000,30.000000,17.000000
4.695359,31.898943,-56.000000,29.000000,15.000000
-24.641811,31.889582,-55.000000,30.000000,15.000000
-47.059040,31.883854,-55.000000,33.000000,16.000000
-50.664207,31.882090,-53.000000,28.000000,19.000000
-38.429520,31.884319,-53.000000,30.000000,17.000000
-25.557537,31.890312,-54.000000,29.000000,19.000000
-23.971403,31.899565,-57.000000,29.000000,16.000000
-33.869068,31.911224,-54.000000,30.000000,17.000000
-48.528240,31.895296,-51.000000,30.000000,19.000000
-62.088303,31.882004,-58.000000,28.000000,14.000000
-72.604141,31.872406,-56.000000,30.000000,14.000000
-79.521454,31.867167,-57.000000,28.000000,15.000000
-79.959023,31.866615,-59.000000,29.000000,12.000000
-71.594521,31.870756,-55.000000,30.000000,17.000000
-58.792072,31.879227,-55.000000,29.000000,17.000000
-50.714153,31.891212,-55.000000,29.000000,16.000000
-52.277561,31.876644,-56.000000,29.000000,16.000000
-59.128101,31.865578,-53.000000,29.000000,16.000000
-61.483841,31.858822,-54.000000,28.000000,18.000000
-51.977753,31.856752,-57.000000,32.000000,16.000000
-30.678843,31.859394,-54.000000,30.000000,17.000000
-4.078846,31.866472,-54.000000,33.000000,16.000000
20.064028,31.877398,-54.000000,30.000000,16.000000
37.209934,31.891212,-54.000000,31.000000,16.000000
47.198524,31.877792,-56.000000,31.000000,14.000000
52.837299,31.867233,-54.000000,29.000000,16.000000
55.914089,31.860458,-54.000000,32.000000,17.000000
53.585018,31.858019,-53.000000,29.000000,17.000000
42.243534,31.860138,-56.000000,30.000000,14.000000
24.309021,31.866737,-53.000000,30.000000,18.000000
6.599314,31.877384,-56.000000,31.000000,17.000000
-5.806337,31.891212,-57.000000,30.000000,15.000000
-10.242531,31.878105,-49.000000,31.000000,20.000000
-6.112661,31.868103,-54.000000,29.000000,17.000000
1.017171,31.861994,-56.000000,32.000000,16.000000
1.828306,31.860146,-55.000000,30.000000,14.000000
-5.031967,31.862576,-55.000000,31.000000,13.000000
-9.515393,31.869011,-55.000000,32.000000,13.000000
-2.107650,31.878872,-58.000000,28.000000,12.000000
15.478550,31.891212,-57.000000,29.000000,15.000000
34.019691,31.875927,-54.000000,31.000000,16.000000
46.511211,31.863157,-58.000000,29.000000,14.000000
51.375237,31.853891,-53.000000,30.000000,15.000000
49.554474,31.848753,-53.000000,30.000000,17.000000
42.645424,31.848063,-55.000000,28.000000,13.000000
33.905731,31.851852,-55.000000,30.000000,18.000000
26.724628,31.859812,-58.000000,29.000000,12.000000
20.796505,31.871199,-58.000000,31.000000,14.000000
14.575612,31.856024,-53.000000,32.000000,16.000000
11.091722,31.844435,-55.000000,31.000000,13.000000
14.275401,31.837320,-53.000000,32.000000,14.000000
21.807554,31.835106,-55.000000,30.000000,15.000000
28.242630,31.837847,-55.000000,30.000000,17.000000
31.335833,31.845263,-53.000000,31.000000,16.000000
31.022886,31.856722,-52.000000,29.000000,19.000000
27.797592,31.871199,-54.000000,31.000000,17.000000
23.572302,31.858469,-55.000000,29.000000,16.000000
19.954332,31.848534,-55.000000,33.000000,16.000000
16.855614,31.842222,-56.000000,31.000000,15.000000
14.781793,31.840004,-53.000000,30.000000,19.000000
14.125227,31.842051,-53.000000,32.000000,18.000000
10.744317,31.848269,-54.000000,32.000000,20.000000
-0.603715,31.858252,-54.000000,36.000000,16.000000
-16.841940,31.871199,-53.000000,31.000000,14.000000
-28.112255,31.857094,-49.000000,33.000000,19.000000
-30.244431,31.846121,-55.000000,33.000000,17.000000
-28.836130,31.839216,-56.000000,31.000000,15.000000
-29.928562,31.836891,-55.000000,31.000000,15.000000
-33.640720,31.839289,-52.000000,30.000000,15.000000
-36.716450,31.846233,-55.000000,31.000000,17.000000
-35.951077,31.857185,-53.000000,30.000000,17.000000
-29.757427,31.871199,-55.000000,28.000000,18.000000
-19.675795,31.858097,-55.000000,30.000000,18.000000
-10.912042,31.847927,-55.000000,30.000000,17.000000
-8.110053,31.841524,-52.000000,31.000000,19.000000
-9.545572,31.839340,-55.000000,29.000000,15.000000
-10.703135,31.841516,-53.000000,32.000000,18.000000
-12.457136,31.847916,-54.000000,32.000000,17.000000
-18.109493,31.858088,-55.000000,31.000000,16.000000
-26.160072,31.871199,-53.000000,34.000000,18.000000
-34.169720,31.857204,-52.000000,30.000000,17.000000
-42.654377,31.846277,-55.000000,30.000000,17.000000
-48.356682,31.839363,-52.000000,33.000000,19.000000
-43.659698,31.836987,-56.000000,30.000000,17.000000
-27.687521,31.839319,-51.000000,31.000000,20.000000
-8.245339,31.846210,-50.000000,31.000000,21.000000
9.987429,31.857151,-54.000000,30.000000,17.000000
30.111155,31.871199,-52.000000,30.000000,19.000000
54.673725,31.858185,-58.000000,31.000000,15.000000
80.012909,31.848139,-55.000000,34.000000,17.000000
100.790924,31.841873,-50.000000,30.000000,22.000000
114.521080,31.839800,-53.000000,31.000000,17.000000
120.000374,31.842022,-50.000000,31.000000,20.000000
116.706482,31.848372,-54.000000,32.000000,18.000000
107.072479,31.858376,-55.000000,30.000000,16.000000
93.873787,31.871199,-54.000000,31.000000,18.000000
74.984581,31.856836,-55.000000,32.000000,14.000000
47.641254,31.845484,-54.000000,30.000000,16.000000
16.782127,31.838156,-53.000000,31.000000,15.000000
-8.794271,31.835461,-58.000000,31.000000,14.000000
-26.160509,31.837667,-56.000000,31.000000,18.000000
-37.891205,31.844717,-56.000000,31.000000,15.000000
-46.238850,31.856186,-52.000000,30.000000,19.000000
-52.628490,31.871199,-54.000000,31.000000,19.000000
-59.472580,31.859638,-57.000000,29.000000,17.000000
-68.515938,31.851517,-56.000000,31.000000,17.000000
-77.594406,31.847601,-53.000000,31.000000,18.000000
-81.553101,31.848227,-56.000000,32.000000,17.000000
-78.905083,31.853380,-51.000000,34.000000,16.000000
-74.710449,31.862745,-51.000000,31.000000,19.000000
-73.069046,31.875690,-52.000000,33.000000,20.000000
-73.022964,31.891212,-55.000000,33.000000,16.000000
-75.231590,31.879145,-52.000000,31.000000,20.000000
-82.776604,31.869545,-52.000000,31.000000,17.000000
-91.309334,31.863314,-55.000000,31.000000,17.000000
-89.201584,31.860992,-53.000000,32.000000,18.000000
-71.595543,31.862825,-55.000000,30.000000,17.000000
-46.095898,31.868778,-53.000000,35.000000,18.000000
-22.760967,31.878494,-54.000000,34.000000,18.000000
-5.442582,31.891212,-54.000000,31.000000,18.000000
7.030959,31.876953,-49.000000,29.000000,23.000000
16.070829,31.865891,-54.000000,32.000000,18.000000
21.844315,31.858959,-55.000000,31.000000,18.000000
25.057049,31.856655,-53.000000,31.000000,18.000000
26.352272,31.859108,-55.000000,31.000000,14.000000
24.491341,31.866123,-52.000000,31.000000,20.000000
18.139032,31.877146,-56.000000,30.000000,16.000000
9.028370,31.891212,-56.000000,33.000000,16.000000
0.998236,31.878159,-53.000000,31.000000,18.000000
-3.966966,31.868006,-56.000000,31.000000,14.000000
-6.647463,31.861593,-53.000000,31.000000,18.000000
-8.661325,31.859385,-53.000000,30.000000,18.000000
-11.221547,31.861530,-56.000000,30.000000,16.000000
-14.556126,31.867908,-55.000000,30.000000,16.000000
-17.361650,31.878078,-57.000000,29.000000,17.000000
-18.765451,31.891212,-54.000000,34.000000,17.000000
-20.835854,31.877277,-53.000000,32.000000,18.000000
-24.313042,31.866419,-54.000000,32.000000,16.000000
-24.083027,31.859564,-53.000000,31.000000,17.000000
-15.579007,31.857229,-55.000000,30.000000,19.000000
-2.099936,31.859571,-51.000000,32.000000,21.000000
9.427995,31.866428,-55.000000,30.000000,19.000000
15.540963,31.877287,-53.000000,31.000000,19.000000
16.603708,31.891212,-53.000000,30.000000,18.000000
14.509020,31.878061,-54.000000,31.000000,19.000000
12.028497,31.867865,-54.000000,32.000000,15.000000
13.077840,31.861458,-54.000000,29.000000,18.000000
20.307775,31.859289,-50.000000,33.000000,18.000000
30.839949,31.861490,-57.000000,28.000000,15.000000
38.465965,31.867914,-56.000000,31.000000,16.000000
41.325916,31.878103,-55.000000,30.000000,14.000000
41.744755,31.891212,-56.000000,27.000000,15.000000
39.730423,31.877211,-56.000000,34.000000,15.000000
33.602959,31.866251,-54.000000,32.000000,15.000000
25.282991,31.859287,-53.000000,30.000000,16.000000
18.277843,31.856859,-56.000000,31.000000,13.000000
10.786613,31.859159,-59.000000,28.000000,13.000000
-2.954890,31.866053,-52.000000,31.000000,16.000000
-23.326710,31.877047,-55.000000,30.000000,15.000000
-42.066635,31.891212,-55.000000,27.000000,16.000000
-49.366322,31.878391,-53.000000,32.000000,16.000000
-41.250134,31.868578,-57.000000,28.000000,15.000000
-21.137590,31.862551,-53.000000,33.000000,17.000000
1.499888,31.860680,-55.000000,30.000000,16.000000
16.348475,31.863008,-55.000000,31.000000,17.000000
20.090784,31.869299,-52.000000,31.000000,18.000000
16.510132,31.879005,-55.000000,32.000000,15.000000
9.265228,31.891212,-53.000000,32.000000,16.000000
-0.552299,31.875845,-51.000000,32.000000,17.000000
-11.342957,31.863045,-55.000000,31.000000,17.000000
-20.895155,31.853790,-53.000000,31.000000,18.000000
-28.169561,31.848694,-53.000000,31.000000,17.000000
-31.338301,31.848057,-53.000000,30.000000,18.000000
-26.650555,31.851883,-54.000000,31.000000,15.000000
-13.064638,31.859848,-57.000000,31.000000,16.000000
4.020370,31.871199,-53.000000,33.000000,18.000000
17.221436,31.855953,-53.000000,32.000000,17.000000
23.272413,31.844267,-54.000000,30.000000,19.000000
21.892527,31.837046,-54.000000,32.000000,18.000000
13.121189,31.834751,-54.000000,29.000000,16.000000
-1.117972,31.837461,-55.000000,29.000000,16.000000
-16.826725,31.844923,-54.000000,31.000000,17.000000
-30.414221,31.856514,-56.000000,30.000000,14.000000
-38.330372,31.871199,-55.000000,30.000000,16.000000
-36.378010,31.858740,-57.000000,30.000000,14.000000
-23.054470,31.849089,-59.000000,31.000000,14.000000
-2.616280,31.843023,-54.000000,31.000000,14.000000
16.662582,31.840960,-55.000000,31.000000,15.000000
28.971725,31.843023,-54.000000,31.000000,15.000000
35.956783,31.849089,-52.000000,29.000000,18.000000
43.047707,31.858740,-56.000000,29.000000,15.000000
51.718796,31.871199,-57.000000,29.000000,12.000000
58.643452,31.856503,-55.000000,29.000000,14.000000
60.549557,31.844900,-57.000000,30.000000,14.000000
56.887810,31.837429,-51.000000,32.000000,18.000000
50.527187,31.834709,-54.000000,33.000000,16.000000
45.444630,31.837002,-55.000000,32.000000,14.000000
40.983524,31.844229,-52.000000,32.000000,16.000000
33.321831,31.855930,-53.000000,32.000000,17.000000
22.939404,31.871199,-54.000000,32.000000,17.000000
13.065042,31.859865,-55.000000,32.000000,16.000000
2.918272,31.851919,-53.000000,30.000000,15.000000
-9.695788,31.848106,-55.000000,33.000000,15.000000
-21.687492,31.848753,-54.000000,31.000000,15.000000
-26.243788,31.853848,-54.000000,32.000000,17.000000
-19.462122,31.863091,-53.000000,33.000000,18.000000
-4.504766,31.875872,-53.000000,27.000000,18.000000
10.344371,31.891212,-58.000000,31.000000,16.000000
18.473907,31.878963,-52.000000,30.000000,16.000000
18.669149,31.869217,-58.000000,31.000000,13.000000
13.385013,31.862892,-54.000000,32.000000,15.000000
6.615183,31.860542,-55.000000,31.000000,15.000000
1.619980,31.862413,-56.000000,30.000000,16.000000
-1.062590,31.868465,-54.000000,31.000000,15.000000
-2.372735,31.878326,-58.000000,30.000000,14.000000
-3.196516,31.891212,-56.000000,30.000000,14.000000
-5.400441,31.877111,-55.000000,30.000000,14.000000
-10.494241,31.866182,-56.000000,30.000000,15.000000
-16.341490,31.859337,-56.000000,30.000000,15.000000
-19.096069,31.857063,-54.000000,27.000000,17.000000
-19.044529,31.859488,-56.000000,29.000000,15.000000
-19.520264,31.866413,-56.000000,28.000000,15.000000
-20.329079,31.877304,-55.000000,28.000000,17.000000
-18.220087,31.891212,-54.000000,29.000000,15.000000
-12.659566,31.877991,-56.000000,27.000000,15.000000
-5.822485,31.867693,-56.000000,28.000000,17.000000
1.133985,31.861181,-56.000000,28.000000,13.000000
6.932325,31.858934,-54.000000,26.000000,17.000000
8.770874,31.861109,-57.000000,29.000000,15.000000
7.476065,31.867580,-54.000000,31.000000,18.000000
9.709211,31.877899,-54.000000,32.000000,17.000000
18.940397,31.891212,-55.000000,28.000000,15.000000
29.455187,31.877459,-56.000000,30.000000,14.000000
35.555866,31.866764,-55.000000,31.000000,15.000000
40.666210,31.860033,-54.000000,30.000000,17.000000
49.546776,31.857756,-56.000000,31.000000,15.000000
57.965557,31.860077,-54.000000,29.000000,17.000000
57.021965,31.866831,-54.000000,30.000000,15.000000
43.183876,31.877514,-56.000000,30.000000,14.000000
21.591856,31.891212,-55.000000,30.000000,15.000000
2.144291,31.877808,-56.000000,30.000000,14.000000
-9.107164,31.867374,-56.000000,29.000000,14.000000
-15.628805,31.860792,-54.000000,28.000000,15.000000
-25.509085,31.858536,-58.000000,29.000000,11.000000
-42.714134,31.860762,-54.000000,28.000000,15.000000
-63.921875,31.867331,-56.000000,31.000000,14.000000
-80.355927,31.877769,-58.000000,28.000000,13.000000
-84.879898,31.891212,-55.000000,30.000000,15.000000
-78.954437,31.877575,-54.000000,29.000000,15.000000
-68.523941,31.866968,-57.000000,27.000000,14.000000
-55.885395,31.860289,-57.000000,28.000000,14.000000
-41.527027,31.858019,-56.000000,28.000000,16.000000
-27.772408,31.860310,-58.000000,28.000000,14.000000
-14.958813,31.867001,-53.000000,30.000000,17.000000
-0.239627,31.877602,-54.000000,32.000000,16.000000
16.791056,31.891212,-53.000000,31.000000,16.000000
32.681690,31.877733,-52.000000,31.000000,17.000000
44.474735,31.867245,-58.000000,32.000000,12.000000
51.525417,31.860626,-54.000000,30.000000,15.000000
53.552570,31.858360,-54.000000,30.000000,16.000000
50.591881,31.860605,-54.000000,30.000000,16.000000
44.922821,31.867212,-55.000000,30.000000,15.000000
39.185333,31.877708,-57.000000,32.000000,14.000000
32.712322,31.891212,-54.000000,32.000000,14.000000
22.511707,31.877640,-53.000000,33.000000,15.000000
6.848896,31.867083,-55.000000,31.000000,15.000000
-12.312493,31.860430,-58.000000,30.000000,17.000000
-27.811321,31.858166,-56.000000,34.000000,14.000000
-30.116678,31.860437,-53.000000,28.000000,16.000000
-16.933340,31.867094,-56.000000,30.000000,14.000000
1.454392,31.877649,-56.000000,31.000000,13.000000
11.223694,31.891212,-54.000000,30.000000,15.000000
7.945168,31.877691,-58.000000,30.000000,11.000000
-2.710050,31.867168,-57.000000,30.000000,12.000000
-14.252646,31.860533,-56.000000,30.000000,16.000000
-25.353966,31.858265,-57.000000,30.000000,13.000000
-36.765392,31.860521,-52.000000,28.000000,17.000000
-46.445938,31.867153,-55.000000,29.000000,17.000000
-51.860600,31.877678,-53.000000,30.000000,15.000000
-55.450680,31.891212,-54.000000,28.000000,17.000000
-62.384178,31.877668,-58.000000,31.000000,13.000000
-72.450859,31.867130,-57.000000,31.000000,15.000000
-78.103920,31.860487,-53.000000,32.000000,17.000000
-72.983406,31.858223,-56.000000,33.000000,14.000000
-60.350784,31.860487,-54.000000,31.000000,16.000000
-49.585266,31.867130,-53.000000,32.000000,16.000000
-44.425182,31.877668,-54.000000,31.000000,18.000000
-41.100025,31.891212,-53.000000,30.000000,17.000000
-37.890274,31.877668,-54.000000,31.000000,16.000000
-37.145641,31.867130,-54.000000,30.000000,17.000000
-36.626427,31.860487,-54.000000,32.000000,16.000000
-28.689478,31.858223,-52.000000,31.000000,18.000000
-9.813409,31.860487,-52.000000,32.000000,19.000000
15.505005,31.867130,-56.000000,33.000000,14.000000
39.677757,31.877668,-51.000000,29.000000,19.000000
56.397137,31.891212,-54.000000,32.000000,16.000000
62.959148,31.877668,-57.000000,30.000000,16.000000
61.757481,31.867130,-53.000000,32.000000,17.000000
57.288780,31.860487,-54.000000,31.000000,14.000000
52.582001,31.858223,-54.000000,28.000000,17.000000
50.922283,31.860487,-55.000000,31.000000,17.000000
55.560543,31.867130,-59.000000,31.000000,13.000000
63.391869,31.877668,-51.000000,28.000000,18.000000
64.720291,31.891212,-55.000000,30.000000,14.000000
52.099224,31.877668,-54.000000,29.000000,16.000000
28.614141,31.867130,-51.000000,29.000000,19.000000
7.688525,31.860487,-57.000000,30.000000,14.000000
0.539973,31.858223,-57.000000,31.000000,16.000000
3.802349,31.860487,-52.000000,32.000000,18.000000
6.403315,31.867130,-55.000000,31.000000,15.000000
4.015070,31.877668,-53.000000,31.000000,17.000000
-1.544514,31.891212,-53.000000,33.000000,16.000000
-10.087589,31.877668,-54.000000,32.000000,15.000000
-21.484203,31.867130,-54.000000,31.000000,17.000000
-31.954697,31.860487,-52.000000,30.000000,18.000000
-37.049000,31.858223,-55.000000,30.000000,16.000000
-35.589714,31.860487,-54.000000,30.000000,19.000000
-29.416601,31.867130,-55.000000,31.000000,16.000000
-20.400023,31.877668,-57.000000,31.000000,12.000000
-8.861198,31.891212,-52.000000,32.000000,19.000000
5.356502,31.877668,-54.000000,32.000000,17.000000
21.411671,31.867130,-56.000000,30.000000,16.000000
36.370785,31.860487,-54.000000,31.000000,19.000000
45.679276,31.858223,-58.000000,33.000000,13.000000
46.891106,31.860487,-51.000000,29.000000,18.000000
41.117966,31.867130,-52.000000,30.000000,17.000000
29.772247,31.877668,-57.000000,30.000000,14.000000
13.836946,31.891212,-54.000000,29.000000,17.000000
-2.613085,31.877668,-55.000000,31.000000,15.000000
-12.895870,31.867130,-57.000000,29.000000,14.000000
-13.972333,31.860487,-54.000000,31.000000,16.000000
-8.886476,31.858223,-53.000000,30.000000,17.000000
-2.831559,31.860487,-55.000000,29.000000,17.000000
-0.230993,31.867130,-54.000000,29.000000,17.000000
-4.767941,31.877668,-59.000000,28.000000,14.000000
-16.985172,31.891212,-54.000000,29.000000,17.000000
-30.516188,31.877668,-57.000000,30.000000,15.000000
-37.009842,31.867130,-57.000000,32.000000,15.000000
-35.893456,31.860487,-51.000000,32.000000,18.000000
-32.492619,31.858223,-56.000000,31.000000,14.000000
-28.619623,31.860487,-54.000000,32.000000,16.000000
-21.824537,31.867130,-54.000000,31.000000,17.000000
-11.121147,31.877668,-54.000000,29.000000,18.000000
0.793538,31.891212,-54.000000,31.000000,18.000000
9.608344,31.877668,-54.000000,30.000000,17.000000
13.316254,31.867130,-54.000000,30.000000,16.000000
14.309081,31.860487,-53.000000,30.000000,17.000000
15.357578,31.858223,-56.000000,30.000000,17.000000
15.585347,31.860487,-53.000000,32.000000,17.000000
13.850890,31.867130,-53.000000,31.000000,17.000000
13.589584,31.877668,-57.000000,30.000000,16.000000
19.426369,31.891212,-54.000000,28.000000,17.000000
29.823738,31.877678,-53.000000,31.000000,17.000000
37.760029,31.867153,-53.000000,27.000000,16.000000
38.825001,31.860521,-62.000000,30.000000,13.000000
33.589924,31.858265,-49.000000,30.000000,17.000000
22.014187,31.860533,-57.000000,31.000000,14.000000
3.421936,31.867168,-57.000000,29.000000,15.000000
-18.403057,31.877691,-54.000000,30.000000,17.000000
-38.138062,31.891212,-53.000000,29.000000,18.000000
-54.562180,31.877649,-55.000000,29.000000,17.000000
-68.258858,31.867094,-55.000000,28.000000,16.000000
-77.738098,31.860437,-56.000000,27.000000,17.000000
-81.704308,31.858166,-55.000000,31.000000,18.000000
-81.628754,31.860430,-54.000000,31.000000,17.000000
-79.448311,31.867083,-52.000000,33.000000,15.000000
-75.173241,31.877640,-54.000000,31.000000,15.000000
-67.798706,31.891212,-55.000000,32.000000,16.000000
-57.813885,31.877708,-56.000000,31.000000,15.000000
-47.923889,31.867212,-52.000000,30.000000,19.000000
-41.068203,31.860605,-56.000000,30.000000,16.000000
-37.536186,31.858360,-53.000000,29.000000,18.000000
-32.848236,31.860626,-56.000000,31.000000,16.000000
-20.580446,31.867245,-53.000000,28.000000,19.000000
0.397036,31.877733,-53.000000,31.000000,19.000000
25.887310,31.891212,-54.000000,32.000000,16.000000
52.988350,31.877602,-52.000000,30.000000,18.000000
79.152794,31.867001,-55.000000,31.000000,17.000000
97.769714,31.860310,-58.000000,30.000000,14.000000
103.429626,31.858019,-51.000000,31.000000,18.000000
98.314308,31.860289,-55.000000,31.000000,16.000000
88.427673,31.866968,-57.000000,28.000000,17.000000
78.476456,31.877575,-51.000000,31.000000,17.000000
70.745827,31.891212,-56.000000,30.000000,16.000000
64.459435,31.877781,-56.000000,29.000000,16.000000
57.020851,31.867352,-52.000000,30.000000,18.000000
46.913124,31.860796,-55.000000,30.000000,18.000000
33.641773,31.858578,-55.000000,29.000000,16.000000
17.012247,31.860836,-58.000000,30.000000,17.000000
-0.863110,31.867413,-54.000000,30.000000,18.000000
-15.589273,31.877831,-51.000000,30.000000,20.000000
-24.964527,31.891212,-56.000000,32.000000,15.000000
-31.401876,31.877495,-49.000000,32.000000,20.000000
-38.748871,31.866795,-54.000000,32.000000,19.000000
-47.209782,31.860027,-53.000000,33.000000,16.000000
-52.538162,31.857697,-53.000000,31.000000,18.000000
-49.998016,31.859976,-53.000000,31.000000,19.000000
-38.465145,31.866716,-51.000000,32.000000,20.000000
-20.694464,31.877432,-53.000000,31.000000,20.000000
-1.484283,31.891212,-52.000000,32.000000,18.000000
14.090699,31.877939,-53.000000,30.000000,17.000000
23.883852,31.867664,-50.000000,33.000000,20.000000
