BVP,TEMP,ACC_x,ACC_y,ACC_z
-0.000274,32.111359,3.000000,3.000000,61.000000
-0.000366,34.438366,3.000000,3.000000,61.000000
-0.000680,35.888504,3.000000,2.000000,61.000000
-0.000620,36.496159,3.000000,3.000000,61.000000
-0.001491,36.367428,3.000000,3.000000,62.000000
0.000652,35.664471,3.000000,3.000000,61.000000
0.008849,34.584297,3.000000,3.000000,62.000000
-0.029063,33.334850,3.000000,3.000000,61.000000
-0.053526,32.111359,3.000000,3.000000,61.000000
0.129399,31.058983,3.000000,3.000000,62.000000
0.658384,30.306141,4.000000,3.000000,61.000000
1.366973,29.914454,3.000000,3.000000,61.000000
2.056166,29.889965,3.000000,3.000000,61.000000
2.781866,30.189083,3.000000,3.000000,62.000000
3.792578,30.730038,3.000000,3.000000,61.000000
5.055568,31.407961,3.000000,3.000000,62.000000
6.191866,32.111359,3.000000,3.000000,62.000000
7.146308,32.720772,3.000000,3.000000,62.000000
8.308087,33.170017,3.000000,3.000000,61.000000
10.077060,33.412556,3.000000,3.000000,61.000000
11.865895,33.436787,3.000000,3.000000,60.000000
13.126775,33.263981,3.000000,3.000000,61.000000
14.616403,32.941734,3.000000,3.000000,62.000000
17.881489,32.534286,3.000000,3.000000,62.000000
22.885530,32.111359,4.000000,3.000000,62.000000
27.547089,31.720329,3.000000,3.000000,62.000000
31.655485,31.425608,3.000000,3.000000,61.000000
37.812210,31.260393,3.000000,3.000000,61.000000
48.103725,31.235943,3.000000,3.000000,61.000000
59.802261,31.342125,3.000000,3.000000,60.000000
69.560440,31.550982,3.000000,3.000000,62.000000
79.341301,31.822472,3.000000,3.000000,61.000000
93.768074,32.111359,3.000000,3.000000,62.000000
112.764267,32.357204,3.000000,3.000000,62.000000
129.801254,32.538765,4.000000,3.000000,61.000000
143.691711,32.636047,3.000000,3.000000,61.000000
158.080933,32.644100,3.000000,3.000000,61.000000
178.112778,32.572201,3.000000,3.000000,61.000000
207.235001,32.440884,3.000000,3.000000,61.000000
228.486359,32.277554,3.000000,3.000000,61.000000
208.727432,32.111359,3.000000,3.000000,62.000000
132.891159,31.951412,3.000000,3.000000,62.000000
23.147654,31.831278,3.000000,3.000000,61.000000
-92.478676,31.764383,3.000000,3.000000,61.000000
-205.344559,31.755032,3.000000,3.000000,61.000000
-313.916809,31.798769,3.000000,3.000000,61.000000
-410.113312,31.883966,3.000000,3.000000,61.000000
-486.833374,31.994257,3.000000,3.000000,61.000000
-537.602295,32.111359,3.000000,3.000000,61.000000
-550.357361,32.200878,3.000000,4.000000,62.000000
-514.551575,32.263016,3.000000,3.000000,61.000000
-434.118439,32.291946,4.000000,3.000000,62.000000
-327.114899,32.288181,4.000000,3.000000,62.000000
-212.539932,32.257759,4.000000,3.000000,61.000000
-102.656837,32.210560,3.000000,3.000000,61.000000
-5.414424,32.158115,2.000000,3.000000,62.000000
72.119789,32.111359,3.000000,3.000000,61.000000
126.390862,32.061710,3.000000,3.000000,61.000000
159.764618,32.028160,3.000000,3.000000,61.000000
177.629120,32.014519,3.000000,3.000000,61.000000
184.029205,32.021412,3.000000,3.000000,61.000000
181.169662,32.046593,3.000000,3.000000,62.000000
171.580566,32.085606,3.000000,3.000000,61.000000
158.395447,32.132645,3.000000,3.000000,62.000000
143.961914,32.181404,3.000000,2.000000,62.000000
129.213730,32.208923,3.000000,3.000000,61.000000
114.536774,32.224556,2.000000,3.000000,62.000000
100.469101,32.228176,4.000000,3.000000,62.000000
87.485161,32.222000,3.000000,3.000000,61.000000
75.794144,32.209900,4.000000,3.000000,61.000000
65.484718,32.196468,3.000000,3.000000,60.000000
56.641872,32.185963,3.000000,3.000000,61.000000
49.299061,32.181404,3.000000,3.000000,62.000000
43.436695,32.166977,3.000000,3.000000,61.000000
38.991978,32.156178,2.000000,4.000000,63.000000
35.914993,32.149803,3.000000,3.000000,62.000000
34.221897,32.148117,3.000000,2.000000,61.000000
33.857964,32.151001,3.000000,2.000000,61.000000
34.602314,32.158028,3.000000,2.000000,60.000000
35.887428,32.168499,3.000000,2.000000,60.000000
36.676167,32.181404,3.000000,2.000000,62.000000
35.637539,32.168346,3.000000,2.000000,62.000000
31.575611,32.158203,2.000000,2.000000,62.000000
24.021074,32.151783,3.000000,2.000000,62.000000
13.437028,32.149506,3.000000,2.000000,62.000000
1.305774,32.151508,3.000000,2.000000,62.000000
-10.288271,32.157715,3.000000,2.000000,61.000000
-19.409523,32.167854,3.000000,2.000000,61.000000
-24.823900,32.181404,3.000000,2.000000,61.000000
-26.279640,32.170452,3.000000,2.000000,61.000000
-24.396469,32.164322,3.000000,2.000000,61.000000
-20.307135,32.164150,3.000000,2.000000,62.000000
-15.169410,32.170475,3.000000,1.000000,62.000000
-9.807932,32.183262,3.000000,1.000000,62.000000
-4.684371,32.201916,4.000000,1.000000,63.000000
0.073459,32.225250,2.000000,1.000000,65.000000
4.670786,32.251450,7.000000,4.000000,63.000000
9.407475,32.251045,1.000000,7.000000,60.000000
14.506800,32.251682,0.000000,3.000000,70.000000
19.773613,32.252930,4.000000,11.000000,62.000000
25.101255,32.254128,-2.000000,5.000000,59.000000
30.558409,32.254692,-20.000000,-28.000000,64.000000
36.569019,32.254322,-16.000000,-1.000000,63.000000
43.292782,32.253098,-16.000000,-12.000000,56.000000
50.713043,32.251450,-20.000000,-12.000000,55.000000
59.120880,32.222935,-30.000000,-24.000000,47.000000
68.942047,32.198708,-35.000000,-27.000000,39.000000
80.470856,32.181854,-30.000000,-24.000000,49.000000
92.923630,32.174709,-24.000000,-14.000000,58.000000
105.769005,32.178638,-8.000000,-21.000000,59.000000
118.839470,32.193790,-32.000000,-16.000000,45.000000
132.285995,32.218948,-66.000000,-14.000000,38.000000
145.507950,32.251450,-56.000000,-22.000000,41.000000
156.680481,32.259758,-56.000000,-7.000000,33.000000
164.011200,32.269882,-60.000000,-11.000000,32.000000
163.399338,32.279228,-49.000000,-19.000000,32.000000
156.229721,32.285172,-50.000000,-10.000000,35.000000
146.304077,32.285667,-42.000000,-13.000000,39.000000
134.352905,32.279751,-49.000000,-6.000000,33.000000
121.365875,32.267788,-52.000000,-5.000000,29.000000
108.543167,32.251450,-59.000000,-1.000000,28.000000
96.705376,32.205860,-59.000000,-4.000000,32.000000
85.918831,32.165207,-63.000000,-6.000000,32.000000
76.127296,32.135445,-60.000000,-8.000000,28.000000
68.103592,32.121502,-49.000000,-6.000000,34.000000
63.560070,32.126595,-55.000000,-4.000000,35.000000
62.892227,32.151634,-54.000000,-10.000000,35.000000
65.185951,32.194798,-50.000000,-7.000000,32.000000
69.024315,32.251450,-50.000000,-2.000000,34.000000
74.103958,32.286839,-52.000000,-11.000000,26.000000
80.062920,32.322918,-57.000000,-1.000000,22.000000
85.327171,32.352745,-58.000000,5.000000,24.000000
85.930710,32.369690,-64.000000,-2.000000,29.000000
79.691460,32.368717,-67.000000,2.000000,27.000000
66.988945,32.347462,-50.000000,0.000000,25.000000
49.142014,32.306896,-46.000000,-2.000000,29.000000
22.685329,32.251450,-67.000000,-4.000000,26.000000
-16.982082,32.161037,-64.000000,6.000000,26.000000
-66.314682,32.076206,-52.000000,-1.000000,29.000000
-118.534264,32.010113,-56.000000,-5.000000,27.000000
-172.541809,31.974821,-57.000000,-2.000000,21.000000
-240.580902,31.979540,-53.000000,-2.000000,23.000000
-323.726532,32.028999,-58.000000,-9.000000,22.000000
-409.007202,32.122158,-64.000000,-8.000000,22.000000
-481.799194,32.251450,-66.000000,-4.000000,28.000000
-544.299866,32.374340,-59.000000,-8.000000,25.000000
-602.438049,32.502903,-59.000000,-10.000000,14.000000
-643.812805,32.616486,-55.000000,-13.000000,14.000000
-666.326965,32.692616,-56.000000,-17.000000,19.000000
-694.336304,32.709560,-61.000000,-18.000000,18.000000
-776.083008,32.648952,-60.000000,-17.000000,21.000000
-919.147400,32.498058,-53.000000,-16.000000,22.000000
-1100.316650,32.251450,-63.000000,-15.000000,17.000000
-1250.431274,31.883429,-30.000000,-28.000000,-3.000000
-1181.479614,31.436769,-57.000000,-18.000000,24.000000
-854.688110,30.932884,-69.000000,-32.000000,19.000000
-407.545532,30.398724,-83.000000,-23.000000,6.000000
43.779430,29.864397,-64.000000,-26.000000,-4.000000
438.027832,29.360350,-60.000000,-20.000000,-4.000000
694.692749,28.914398,-68.000000,-21.000000,-9.000000
786.240356,28.548988,-65.000000,-20.000000,-16.000000
777.532288,28.250511,-58.000000,-12.000000,-6.000000
742.666443,28.056679,-70.000000,-22.000000,-9.000000
695.470642,27.967154,-46.000000,-19.000000,-17.000000
626.205872,27.972754,-36.000000,-29.000000,9.000000
550.522156,28.056877,-75.000000,-20.000000,-16.000000
484.287079,28.197580,-75.000000,-14.000000,-12.000000
425.713226,28.370018,-75.000000,-10.000000,-9.000000
361.117584,28.548988,-66.000000,-14.000000,-9.000000
291.801270,28.682854,-59.000000,-8.000000,-28.000000
227.331375,28.784313,-79.000000,1.000000,-25.000000
169.279602,28.842926,-62.000000,-17.000000,-10.000000
110.679550,28.854525,-55.000000,-17.000000,-16.000000
47.747482,28.821247,-79.000000,-7.000000,-15.000000
-14.785021,28.750832,-74.000000,9.000000,-5.000000
-75.347084,28.655264,-48.000000,-10.000000,-1.000000
-137.131638,28.548988,-42.000000,-20.000000,-5.000000
-203.002045,28.418240,-43.000000,-7.000000,-12.000000
-269.930206,28.308615,-65.000000,4.000000,-16.000000
-331.823700,28.233879,-78.000000,4.000000,-22.000000
-381.226440,28.203619,-64.000000,-6.000000,-12.000000
-405.057495,28.222578,-60.000000,-1.000000,-10.000000
-392.147705,28.290476,-66.000000,1.000000,-13.000000
-336.024963,28.402300,-60.000000,-5.000000,-13.000000
-241.833450,28.548988,-61.000000,-8.000000,-15.000000
-124.772499,28.689737,-54.000000,-13.000000,-14.000000
2.069438,28.842730,-53.000000,-3.000000,-14.000000
133.564529,28.996897,-64.000000,-16.000000,-36.000000
268.741486,29.142044,-56.000000,-18.000000,-30.000000
404.662415,29.269943,-53.000000,-20.000000,-31.000000
531.038391,29.375061,-57.000000,-19.000000,-29.000000
627.799683,29.454851,-57.000000,-23.000000,-28.000000
675.337097,29.509626,-52.000000,-16.000000,-26.000000
660.476562,29.513321,-44.000000,-25.000000,-34.000000
578.174255,29.502211,-61.000000,-18.000000,-30.000000
441.325592,29.484404,-62.000000,-18.000000,-28.000000
272.352264,29.467691,-51.000000,-14.000000,-26.000000
86.278702,29.458651,-47.000000,-21.000000,-40.000000
-110.590698,29.461830,-77.000000,-15.000000,-28.000000
-298.591095,29.479160,-69.000000,-23.000000,-34.000000
-445.571960,29.509626,-49.000000,-14.000000,-21.000000
-528.655518,29.520597,-46.000000,-22.000000,-26.000000
-539.130554,29.537735,-63.000000,-32.000000,-37.000000
-468.994446,29.556181,-32.000000,-32.000000,-31.000000
-314.403473,29.570402,-49.000000,-17.000000,-31.000000
-91.928215,29.575321,-55.000000,-28.000000,-26.000000
157.474106,29.567320,-37.000000,-38.000000,-31.000000
369.045593,29.545008,-60.000000,-16.000000,-28.000000
466.204132,29.509626,-69.000000,-31.000000,-33.000000
421.183807,29.436342,-46.000000,-24.000000,-37.000000
300.862061,29.363344,-58.000000,-25.000000,-34.000000
196.890076,29.301529,-42.000000,-26.000000,-22.000000
134.974991,29.262316,-42.000000,-32.000000,-25.000000
95.051682,29.256437,-57.000000,-18.000000,-14.000000
68.432022,29.292671,-53.000000,-21.000000,-22.000000
50.646587,29.376598,-40.000000,-21.000000,-18.000000
28.977621,29.509626,-51.000000,-33.000000,-22.000000
2.627471,29.659695,-59.000000,-29.000000,-27.000000
-15.234420,29.850702,-39.000000,-13.000000,-23.000000
-20.457111,30.073427,-52.000000,-16.000000,-32.000000
-24.469906,30.315372,-39.000000,-67.000000,-27.000000
-34.420254,30.562140,-54.000000,-19.000000,-31.000000
-43.400253,30.798975,-54.000000,-40.000000,-31.000000
-44.197445,31.012251,-22.000000,-36.000000,-30.000000
-40.114208,31.190744,-61.000000,-49.000000,-27.000000
-38.933182,31.297848,-46.000000,-31.000000,-29.000000
-41.205616,31.361561,-50.000000,-20.000000,-33.000000
-41.506252,31.384941,-48.000000,-35.000000,-33.000000
-37.788898,31.374514,-42.000000,-36.000000,-33.000000
-33.628262,31.339424,-45.000000,-22.000000,-32.000000
-31.749088,31.290247,-63.000000,-38.000000,-39.000000
-30.590099,31.237598,-49.000000,-20.000000,-29.000000
-27.571972,31.190744,-32.000000,-16.000000,-32.000000
-23.019384,31.127708,-44.000000,-17.000000,-39.000000
-19.263140,31.083944,-68.000000,-32.000000,-38.000000
-17.385872,31.062435,-60.000000,-41.000000,-42.000000
-16.332977,31.062704,-43.000000,-16.000000,-36.000000
-14.741309,31.081411,-47.000000,-20.000000,-34.000000
-12.954111,31.113222,-42.000000,-26.000000,-35.000000
-12.203587,31.151796,-43.000000,-24.000000,-38.000000
-12.223544,31.190744,-21.000000,-41.000000,-37.000000
-11.207941,31.197155,-58.000000,-43.000000,-37.000000
-9.042058,31.196758,-28.000000,-23.000000,-39.000000
-8.461891,31.190281,-42.000000,-17.000000,-42.000000
-10.862784,31.180264,-51.000000,-54.000000,-42.000000
-12.745866,31.170692,-31.000000,-23.000000,-42.000000
-10.360285,31.166321,-42.000000,-32.000000,-43.000000
-6.997837,31.171797,-42.000000,-34.000000,-46.000000
-9.503139,31.190744,-38.000000,-51.000000,-49.000000
-16.392366,31.197670,-43.000000,-40.000000,-43.000000
-17.760902,31.221991,-37.000000,8.000000,-38.000000
-11.339689,31.263876,-50.000000,-15.000000,-36.000000
-8.637236,31.321232,-42.000000,-58.000000,-47.000000
-16.831367,31.390106,-40.000000,-26.000000,-48.000000
-25.041830,31.465275,-33.000000,-25.000000,-48.000000
-21.062496,31.540871,-44.000000,-47.000000,-43.000000
-11.130881,31.611025,-35.000000,-31.000000,-43.000000
-9.819627,31.643110,-46.000000,-23.000000,-45.000000
-22.147242,31.662745,-46.000000,-24.000000,-44.000000
-37.011593,31.670084,-39.000000,-22.000000,-44.000000
-23.925365,31.666714,-37.000000,-16.000000,-41.000000
40.323566,31.655455,-36.000000,-46.000000,-45.000000
118.417809,31.639935,-43.000000,-35.000000,-48.000000
132.217148,31.623997,-33.000000,-11.000000,-46.000000
63.137173,31.611025,-44.000000,-1.000000,-50.000000
-13.790045,31.576052,-27.000000,-41.000000,-36.000000
-18.842361,31.549879,-43.000000,-33.000000,-38.000000
45.765331,31.534883,-36.000000,-19.000000,-48.000000
119.088425,31.531860,-42.000000,-20.000000,-51.000000
150.414902,31.540178,-29.000000,-38.000000,-41.000000
116.155037,31.558033,-29.000000,-34.000000,-46.000000
24.033409,31.582739,-34.000000,-30.000000,-43.000000
-59.767441,31.611025,-28.000000,-40.000000,-40.000000
-67.898438,31.611692,-26.000000,-31.000000,-35.000000
-37.243668,31.611609,-46.000000,-26.000000,-43.000000
-49.570271,31.610590,-41.000000,-32.000000,-41.000000
-87.677444,31.608868,-31.000000,-28.000000,-41.000000
-83.210518,31.607109,-36.000000,-41.000000,-44.000000
-43.240959,31.606266,-43.000000,-46.000000,-42.000000
-15.477777,31.607338,-37.000000,-31.000000,-38.000000
-6.799415,31.611025,-37.000000,-31.000000,-42.000000
-5.529316,31.589804,-50.000000,-25.000000,-46.000000
-4.572557,31.573418,-30.000000,-38.000000,-47.000000
3.767948,31.563444,-28.000000,-51.000000,-37.000000
6.413588,31.560625,-21.000000,-26.000000,-35.000000
-8.910933,31.564945,-45.000000,-35.000000,-46.000000
-19.475489,31.575720,-36.000000,-26.000000,-37.000000
-17.442539,31.591677,-42.000000,-39.000000,-39.000000
-34.278027,31.611025,-39.000000,-8.000000,-57.000000
-67.767845,31.603889,-27.000000,-39.000000,-49.000000
-66.017159,31.598137,-28.000000,-32.000000,-45.000000
-18.250982,31.594152,-5.000000,-43.000000,-4.000000
26.222332,31.592268,-29.000000,-30.000000,-75.000000
34.856476,31.592815,-20.000000,-57.000000,-114.000000
10.020987,31.596088,-6.000000,-43.000000,-50.000000
-35.691368,31.602222,-18.000000,-54.000000,-35.000000
-67.562737,31.611025,-16.000000,-34.000000,-60.000000
-51.657677,31.594173,-13.000000,-34.000000,-47.000000
-8.658288,31.580835,-22.000000,-48.000000,-56.000000
9.435972,31.572298,-17.000000,-39.000000,-14.000000
-11.151322,31.569319,-12.000000,-41.000000,-45.000000
-39.553375,31.572163,-8.000000,-38.000000,-52.000000
-46.892952,31.580622,-25.000000,-55.000000,-49.000000
-24.799778,31.593992,-20.000000,-12.000000,-45.000000
13.241879,31.611025,-20.000000,-46.000000,-50.000000
23.021473,31.601547,-39.000000,-45.000000,-44.000000
-24.556564,31.594671,-18.000000,-45.000000,-37.000000
-70.071381,31.590778,9.000000,-46.000000,-25.000000
-30.881397,31.589920,-21.000000,-10.000000,-72.000000
50.093346,31.591938,-50.000000,-1.000000,-49.000000
58.156281,31.596506,-29.000000,-69.000000,-60.000000
-7.151196,31.603121,-42.000000,-19.000000,-52.000000
-42.327801,31.611025,-37.000000,-30.000000,-44.000000
-18.027632,31.590775,-43.000000,-22.000000,-45.000000
9.419900,31.572363,-44.000000,-26.000000,-45.000000
19.642002,31.557129,-53.000000,-25.000000,-34.000000
18.129501,31.546059,-44.000000,-20.000000,-35.000000
-12.037616,31.539816,-47.000000,-23.000000,-32.000000
-58.174267,31.538713,-62.000000,-20.000000,-29.000000
-64.033218,31.542646,-60.000000,-22.000000,-27.000000
-21.787243,31.550985,-52.000000,-23.000000,-24.000000
4.049978,31.534142,-59.000000,-18.000000,-25.000000
-26.721968,31.521708,-60.000000,-14.000000,-26.000000
-73.259750,31.514418,-53.000000,-26.000000,-18.000000
-75.809837,31.512516,-54.000000,-26.000000,-12.000000
-23.307936,31.515858,-59.000000,-23.000000,-12.000000
52.528267,31.523970,-61.000000,-28.000000,-17.000000
112.708107,31.536062,-60.000000,-24.000000,-5.000000
150.115402,31.550985,-62.000000,-19.000000,-9.000000
176.456802,31.538834,-60.000000,-21.000000,-8.000000
192.945877,31.529118,-49.000000,-29.000000,-7.000000
197.403992,31.522713,-60.000000,-24.000000,-6.000000
162.247620,31.520191,-62.000000,-29.000000,-15.000000
68.841072,31.521875,-61.000000,-17.000000,-8.000000
-52.522667,31.527822,-64.000000,-33.000000,-13.000000
-155.947739,31.537764,-62.000000,-27.000000,-10.000000
-225.039215,31.550985,-60.000000,-24.000000,-6.000000
-251.978333,31.537725,-58.000000,-31.000000,-8.000000
-199.220398,31.527826,-58.000000,-31.000000,-6.000000
-50.298557,31.522055,-61.000000,-28.000000,-2.000000
126.474480,31.520676,-51.000000,-25.000000,-1.000000
222.786545,31.523542,-61.000000,-34.000000,0.000000
170.810532,31.530161,-58.000000,-26.000000,2.000000
42.277256,31.539707,-57.000000,-31.000000,2.000000
-65.294212,31.550985,-54.000000,-31.000000,4.000000
-132.528091,31.533920,-63.000000,-32.000000,0.000000
-150.413574,31.518257,-59.000000,-25.000000,4.000000
-103.294960,31.504925,-62.000000,-30.000000,0.000000
-22.179697,31.494616,-53.000000,-33.000000,9.000000
41.707649,31.487844,-55.000000,-34.000000,5.000000
73.714203,31.484964,-57.000000,-30.000000,4.000000
90.174561,31.486082,-57.000000,-32.000000,4.000000
104.333015,31.490944,-59.000000,-32.000000,5.000000
118.804001,31.470295,-53.000000,-31.000000,6.000000
154.841141,31.454491,-49.000000,-21.000000,7.000000
231.794983,31.444775,-54.000000,-32.000000,4.000000
308.001129,31.441793,-52.000000,-35.000000,4.000000
348.295013,31.445637,-53.000000,-32.000000,4.000000
338.434601,31.455862,-57.000000,-26.000000,8.000000
264.508057,31.471485,-52.000000,-28.000000,5.000000
159.447693,31.490944,-53.000000,-32.000000,4.000000
92.895706,31.483595,-60.000000,-31.000000,5.000000
76.033936,31.478466,-50.000000,-38.000000,-1.000000
73.521111,31.475691,-54.000000,-32.000000,-2.000000
52.315842,31.475149,-57.000000,-40.000000,0.000000
-18.523716,31.476633,-54.000000,-31.000000,-2.000000
-143.483002,31.479921,-54.000000,-32.000000,-2.000000
-281.685150,31.484795,-55.000000,-33.000000,-3.000000
-384.186188,31.490944,-57.000000,-31.000000,-4.000000
-443.336548,31.469357,-57.000000,-42.000000,-6.000000
-487.669769,31.450966,-52.000000,-28.000000,-6.000000
-528.229614,31.437834,-56.000000,-34.000000,-6.000000
-572.700500,31.431623,-56.000000,-41.000000,-2.000000
-517.634766,31.433527,-56.000000,-30.000000,-6.000000
-301.053680,31.444199,-55.000000,-33.000000,-8.000000
-74.053520,31.463615,-53.000000,-34.000000,-7.000000
53.277805,31.490944,-52.000000,-36.000000,-8.000000
103.313133,31.495932,-56.000000,-36.000000,-11.000000
120.620575,31.507652,-58.000000,-35.000000,-12.000000
110.859474,31.525862,-52.000000,-34.000000,-5.000000
90.721107,31.549681,-51.000000,-36.000000,-8.000000
82.915756,31.577782,-50.000000,-31.000000,-9.000000
86.101143,31.608574,-49.000000,-36.000000,-10.000000
70.310196,31.640293,-55.000000,-40.000000,-7.000000
32.186646,31.671064,-53.000000,-33.000000,-10.000000
-4.066241,31.670378,-48.000000,-23.000000,-6.000000
-23.756941,31.667879,-55.000000,-37.000000,-9.000000
-35.625542,31.664650,-60.000000,-34.000000,-9.000000
-47.347294,31.661747,-54.000000,-35.000000,-9.000000
-42.084515,31.660187,-52.000000,-36.000000,-12.000000
-6.994227,31.660872,-55.000000,-37.000000,-12.000000
50.974220,31.664440,-56.000000,-34.000000,-11.000000
106.308159,31.671064,-54.000000,-41.000000,-11.000000
141.882172,31.651764,-54.000000,-41.000000,-11.000000
155.864288,31.637054,-50.000000,-37.000000,-13.000000
154.418518,31.628178,-51.000000,-39.000000,-11.000000
145.346344,31.625685,-49.000000,-37.000000,-7.000000
133.743057,31.629526,-53.000000,-38.000000,-9.000000
121.500282,31.639135,-54.000000,-32.000000,-6.000000
109.113426,31.653479,-53.000000,-34.000000,-8.000000
97.596367,31.671064,-53.000000,-39.000000,-7.000000
88.444412,31.661469,-53.000000,-40.000000,-6.000000
88.536423,31.654022,-57.000000,-34.000000,-8.000000
98.713913,31.649269,-53.000000,-37.000000,-8.000000
91.554955,31.647526,-54.000000,-40.000000,-5.000000
40.822903,31.648947,-51.000000,-35.000000,-6.000000
-28.347546,31.653543,-48.000000,-36.000000,-4.000000
-71.027054,31.661100,-50.000000,-40.000000,-4.000000
-77.397957,31.671064,-53.000000,-33.000000,-5.000000
-52.820427,31.653933,-56.000000,-34.000000,-8.000000
4.144345,31.639832,-53.000000,-40.000000,-10.000000
74.284698,31.629887,-52.000000,-38.000000,-8.000000
112.236938,31.624741,-56.000000,-38.000000,-12.000000
88.634720,31.624624,-53.000000,-35.000000,-8.000000
19.084612,31.629395,-53.000000,-38.000000,-5.000000
-53.176701,31.638525,-51.000000,-36.000000,-6.000000
-88.780678,31.651051,-56.000000,-36.000000,-7.000000
-66.498238,31.637037,-54.000000,-39.000000,-6.000000
-1.380103,31.626228,-58.000000,-34.000000,-13.000000
40.415287,31.619448,-53.000000,-36.000000,-5.000000
6.285852,31.617147,-51.000000,-40.000000,-5.000000
-64.161804,31.619474,-55.000000,-40.000000,-6.000000
-92.136154,31.626287,-45.000000,-44.000000,-2.000000
-66.276085,31.637112,-54.000000,-31.000000,-10.000000
-23.714773,31.651051,-56.000000,-39.000000,-8.000000
16.509623,31.638220,-51.000000,-38.000000,-1.000000
45.564308,31.628368,-50.000000,-37.000000,-1.000000
43.521378,31.622288,-55.000000,-36.000000,-3.000000
5.316200,31.620356,-52.000000,-38.000000,-1.000000
-38.868824,31.622627,-48.000000,-39.000000,-1.000000
-64.942467,31.628891,-53.000000,-40.000000,-6.000000
-81.617485,31.638647,-52.000000,-38.000000,0.000000
-103.632339,31.651051,-48.000000,-39.000000,0.000000
-123.579124,31.636417,-57.000000,-42.000000,0.000000
-125.818085,31.624674,-59.000000,-35.000000,0.000000
-114.992767,31.616905,-53.000000,-40.000000,-5.000000
-109.688057,31.613834,-54.000000,-39.000000,-2.000000
-118.292770,31.615850,-53.000000,-40.000000,-1.000000
-136.239410,31.623020,-51.000000,-37.000000,-5.000000
-145.551819,31.635019,-56.000000,-39.000000,0.000000
-117.745430,31.651051,-55.000000,-38.000000,-2.000000
-52.792252,31.641308,-47.000000,-34.000000,1.000000
4.806555,31.635447,-42.000000,-31.000000,7.000000
23.088371,31.634142,-69.000000,-46.000000,-14.000000
22.311348,31.637604,-56.000000,-40.000000,-13.000000
31.105644,31.645668,-60.000000,-39.000000,-16.000000
52.244717,31.657856,-52.000000,-43.000000,-5.000000
81.646988,31.673376,-53.000000,-42.000000,-7.000000
115.646667,31.691078,-49.000000,-36.000000,-5.000000
140.195343,31.680979,-50.000000,-40.000000,-4.000000
139.731918,31.672728,-52.000000,-41.000000,1.000000
123.642509,31.667191,-54.000000,-39.000000,1.000000
125.849632,31.664928,-50.000000,-39.000000,-1.000000
152.566544,31.666256,-53.000000,-39.000000,0.000000
155.180374,31.671259,-49.000000,-42.000000,0.000000
99.321106,31.679729,-49.000000,-38.000000,3.000000
21.263033,31.691078,-51.000000,-51.000000,-1.000000
-33.653698,31.675787,-51.000000,-38.000000,4.000000
-60.141026,31.663855,-51.000000,-39.000000,5.000000
-62.546879,31.656330,-53.000000,-34.000000,7.000000
-53.587559,31.653793,-50.000000,-48.000000,3.000000
-69.480751,31.656418,-48.000000,-37.000000,5.000000
-116.954002,31.663990,-49.000000,-41.000000,3.000000
-138.413086,31.675900,-48.000000,-40.000000,2.000000
-102.477570,31.691078,-52.000000,-42.000000,3.000000
-47.706913,31.679346,-53.000000,-40.000000,2.000000
-8.145585,31.670404,-49.000000,-40.000000,6.000000
10.646533,31.664925,-49.000000,-40.000000,5.000000
7.561704,31.663214,-49.000000,-41.000000,5.000000
-8.284865,31.665306,-50.000000,-41.000000,5.000000
-17.243731,31.671007,-51.000000,-40.000000,3.000000
-13.899816,31.679861,-52.000000,-41.000000,4.000000
-11.005199,31.691078,-51.000000,-40.000000,4.000000
-22.812513,31.674854,-53.000000,-41.000000,4.000000
-42.380295,31.661312,-51.000000,-39.000000,5.000000
-32.698872,31.651548,-51.000000,-39.000000,6.000000
29.760279,31.646252,-52.000000,-40.000000,7.000000
109.679413,31.645763,-49.000000,-44.000000,6.000000
151.096222,31.650072,-51.000000,-42.000000,7.000000
155.260223,31.658792,-47.000000,-41.000000,8.000000
152.371124,31.671064,-50.000000,-43.000000,6.000000
140.762543,31.656902,-48.000000,-37.000000,5.000000
110.576134,31.646162,-48.000000,-41.000000,2.000000
67.410507,31.639612,-50.000000,-39.000000,2.000000
23.491505,31.637604,-51.000000,-40.000000,4.000000
-17.841539,31.640158,-52.000000,-41.000000,3.000000
-55.442322,31.647018,-52.000000,-40.000000,3.000000
-80.001457,31.657627,-49.000000,-39.000000,4.000000
-86.959320,31.671064,-48.000000,-39.000000,5.000000
-87.537132,31.657381,-51.000000,-38.000000,8.000000
-94.718163,31.646563,-54.000000,-43.000000,2.000000
-106.879974,31.639576,-49.000000,-40.000000,3.000000
-112.084801,31.637009,-51.000000,-40.000000,2.000000
-100.209953,31.639122,-50.000000,-40.000000,3.000000
-70.388901,31.645859,-53.000000,-39.000000,3.000000
-24.832394,31.656799,-55.000000,-39.000000,2.000000
31.076015,31.671064,-51.000000,-38.000000,6.000000
86.702469,31.658621,-53.000000,-41.000000,3.000000
125.821724,31.649302,-53.000000,-41.000000,2.000000
136.735565,31.643818,-52.000000,-45.000000,0.000000
119.066277,31.642431,-50.000000,-39.000000,1.000000
78.398888,31.645041,-53.000000,-42.000000,-2.000000
30.743519,31.651230,-49.000000,-39.000000,-1.000000
-11.755116,31.660269,-51.000000,-40.000000,-2.000000
-43.554359,31.671064,-52.000000,-43.000000,-2.000000
-64.771416,31.653496,-51.000000,-41.000000,-1.000000
-79.770851,31.637468,-52.000000,-41.000000,-1.000000
-93.479904,31.623951,-51.000000,-40.000000,-1.000000
-106.490829,31.613634,-47.000000,-42.000000,-4.000000
-113.218323,31.607016,-51.000000,-41.000000,0.000000
-106.003906,31.604401,-49.000000,-40.000000,1.000000
-81.237617,31.605841,-51.000000,-42.000000,-1.000000
-42.138100,31.611025,-47.000000,-41.000000,1.000000
2.145178,31.590530,-52.000000,-43.000000,1.000000
40.331226,31.574791,-49.000000,-45.000000,1.000000
64.566872,31.565056,-48.000000,-45.000000,3.000000
73.301865,31.561993,-50.000000,-45.000000,0.000000
72.132797,31.565737,-49.000000,-43.000000,2.000000
69.798012,31.575888,-45.000000,-43.000000,4.000000
69.907944,31.591497,-44.000000,-45.000000,1.000000
70.306526,31.611025,-50.000000,-44.000000,-1.000000
71.087158,31.603704,-48.000000,-42.000000,1.000000
72.687485,31.598650,-48.000000,-45.000000,2.000000
72.934341,31.595972,-46.000000,-44.000000,3.000000
64.442406,31.595516,-46.000000,-46.000000,1.000000
44.863960,31.597040,-47.000000,-46.000000,-2.000000
25.269310,31.600300,-42.000000,-46.000000,1.000000
18.333513,31.605061,-46.000000,-46.000000,1.000000
20.164593,31.611025,-48.000000,-48.000000,-2.000000
18.127134,31.589098,-46.000000,-47.000000,0.000000
13.510710,31.570362,-45.000000,-48.000000,-2.000000
19.279402,31.556942,-45.000000,-45.000000,-1.000000
38.345913,31.550560,-44.000000,-45.000000,1.000000
62.489124,31.552467,-46.000000,-45.000000,2.000000
80.864166,31.563337,-44.000000,-45.000000,2.000000
76.775269,31.583147,-44.000000,-47.000000,3.000000
53.642681,31.611025,-45.000000,-46.000000,2.000000
50.537460,31.616541,-45.000000,-47.000000,0.000000
78.641212,31.628780,-48.000000,-47.000000,-1.000000
91.483292,31.647408,-45.000000,-48.000000,-1.000000
72.028534,31.671450,-44.000000,-48.000000,-2.000000
70.735397,31.699522,-44.000000,-48.000000,-1.000000
113.608574,31.730003,-44.000000,-47.000000,-1.000000
159.992355,31.761148,-44.000000,-47.000000,-1.000000
176.423004,31.791145,-44.000000,-46.000000,-1.000000
169.556839,31.789486,-46.000000,-47.000000,-2.000000
141.114670,31.786060,-47.000000,-47.000000,-2.000000
84.980804,31.782103,-44.000000,-47.000000,0.000000
19.998859,31.778811,-44.000000,-48.000000,0.000000
-23.257002,31.777308,-45.000000,-48.000000,-4.000000
-40.143108,31.778547,-48.000000,-49.000000,-4.000000
-40.880680,31.783134,-49.000000,-46.000000,2.000000
-29.262150,31.791145,-45.000000,-46.000000,4.000000
-16.884279,31.773315,-46.000000,-48.000000,4.000000
-13.912441,31.760040,-41.000000,-46.000000,6.000000
-3.790619,31.752323,-45.000000,-48.000000,0.000000
29.201199,31.750484,-45.000000,-45.000000,6.000000
72.530647,31.754292,-43.000000,-44.000000,7.000000
110.079407,31.763081,-48.000000,-49.000000,3.000000
132.818695,31.775822,-57.000000,-49.000000,0.000000
130.978470,31.791145,-31.000000,-42.000000,3.000000
111.634010,31.778742,-42.000000,-50.000000,1.000000
103.592270,31.768431,-58.000000,-45.000000,-4.000000
121.740860,31.761190,-47.000000,-46.000000,-2.000000
152.042862,31.757811,-47.000000,-47.000000,-4.000000
172.434067,31.758904,-46.000000,-43.000000,-1.000000
166.597748,31.764866,-47.000000,-43.000000,1.000000
126.747177,31.775759,-45.000000,-44.000000,2.000000
56.594978,31.791145,-49.000000,-44.000000,-2.000000
-27.773018,31.781334,-47.000000,-45.000000,-1.000000
-104.326759,31.776350,-44.000000,-45.000000,-2.000000
-154.842682,31.776922,-43.000000,-44.000000,-1.000000
-166.686142,31.783161,-47.000000,-44.000000,-4.000000
-141.046082,31.794683,-53.000000,-44.000000,-5.000000
-92.464012,31.810688,-49.000000,-43.000000,-2.000000
-41.213417,31.830025,-54.000000,-44.000000,-1.000000
-2.142672,31.851185,-46.000000,-43.000000,-1.000000
19.993820,31.843699,-37.000000,-43.000000,0.000000
22.659552,31.837206,-44.000000,-41.000000,3.000000
4.813529,31.832495,-47.000000,-45.000000,3.000000
-33.059788,31.830173,-49.000000,-47.000000,0.000000
-73.695892,31.830708,-46.000000,-45.000000,6.000000
-103.926506,31.834410,-44.000000,-48.000000,5.000000
-122.224724,31.841345,-47.000000,-46.000000,0.000000
-145.214920,31.851185,-49.000000,-46.000000,1.000000
-174.401672,31.834454,-43.000000,-43.000000,6.000000
-189.169434,31.821503,-38.000000,-45.000000,6.000000
-196.498688,31.813469,-48.000000,-46.000000,5.000000
-224.223511,31.810938,-48.000000,-46.000000,6.000000
-309.282898,31.814001,-43.000000,-40.000000,5.000000
-409.780182,31.822319,-48.000000,-47.000000,4.000000
-493.688232,31.835125,-49.000000,-46.000000,4.000000
-571.468079,31.851185,-47.000000,-45.000000,3.000000
-693.217529,31.840021,-41.000000,-46.000000,5.000000
-851.148315,31.831375,-43.000000,-46.000000,5.000000
-958.157471,31.825918,-57.000000,-19.000000,-38.000000
-1017.241699,31.824018,-40.000000,-53.000000,2.000000
-1088.895386,31.825817,-50.000000,-46.000000,-3.000000
-1257.623291,31.831238,-49.000000,-46.000000,-3.000000
-1399.165161,31.839935,-44.000000,-46.000000,3.000000
-1401.511719,31.851185,-42.000000,-49.000000,1.000000
-1127.060547,31.835028,-50.000000,-52.000000,-3.000000
-307.405975,31.821671,-47.000000,-42.000000,-1.000000
520.756897,31.812149,-53.000000,-48.000000,-5.000000
961.167053,31.807070,-68.000000,-25.000000,-14.000000
1123.024170,31.806690,-60.000000,-49.000000,-7.000000
1104.904541,31.810932,-77.000000,-36.000000,-35.000000
949.692810,31.819374,-7.000000,-34.000000,15.000000
807.708252,31.831171,-12.000000,-46.000000,18.000000
773.698792,31.816229,22.000000,-33.000000,46.000000
786.277832,31.804632,9.000000,-37.000000,54.000000
712.163879,31.797318,3.000000,-39.000000,48.000000
536.004700,31.794813,16.000000,-41.000000,56.000000
415.169495,31.797304,10.000000,-30.000000,45.000000
420.138763,31.804632,13.000000,-23.000000,60.000000
462.619110,31.816256,9.000000,-37.000000,56.000000
391.548401,31.831171,4.000000,-34.000000,51.000000
223.988571,31.819080,-10.000000,-32.000000,55.000000
105.222694,31.809830,-14.000000,-28.000000,55.000000
117.179695,31.804117,-10.000000,-31.000000,53.000000
179.524658,31.802271,-16.000000,-37.000000,54.000000
228.177322,31.804346,-4.000000,-23.000000,58.000000
272.035309,31.810177,-17.000000,-34.000000,47.000000
292.821808,31.819361,-27.000000,-32.000000,46.000000
269.714355,31.831171,4.000000,-77.000000,38.000000
223.663849,31.815506,-15.000000,-41.000000,44.000000
196.747345,31.802927,-59.000000,-35.000000,33.000000
186.414932,31.794672,-46.000000,-41.000000,39.000000
179.465500,31.791542,-30.000000,-44.000000,37.000000
167.142349,31.793930,-35.000000,-40.000000,32.000000
135.821381,31.801792,-65.000000,-14.000000,23.000000
48.926159,31.814581,-58.000000,-42.000000,20.000000
-113.132980,31.831171,-43.000000,-49.000000,29.000000
-309.555115,31.820814,-49.000000,-44.000000,19.000000
-485.273407,31.813272,-53.000000,-37.000000,14.000000
-605.462524,31.808931,-49.000000,-38.000000,21.000000
-691.198364,31.807831,-50.000000,-35.000000,15.000000
-734.552612,31.809816,-55.000000,-37.000000,2.000000
-701.646118,31.814629,-49.000000,-34.000000,15.000000
-538.172302,31.821918,-57.000000,-36.000000,-5.000000
-191.071472,31.831171,-66.000000,-33.000000,-7.000000
93.437630,31.812622,-54.000000,-31.000000,25.000000
197.078232,31.797274,-48.000000,-51.000000,17.000000
247.667633,31.786831,-49.000000,-39.000000,15.000000
294.861969,31.782528,-41.000000,-34.000000,33.000000
321.452454,31.785078,-60.000000,-36.000000,19.000000
314.038513,31.794584,-51.000000,-30.000000,34.000000
250.833847,31.810427,-52.000000,-41.000000,36.000000
128.559601,31.831171,-76.000000,-39.000000,21.000000
7.282862,31.825550,-43.000000,-33.000000,30.000000
20.504494,31.822645,-43.000000,-49.000000,38.000000
151.787430,31.822077,-48.000000,-41.000000,31.000000
265.166046,31.823143,-11.000000,-33.000000,49.000000
336.551117,31.825089,-22.000000,-30.000000,21.000000
365.333740,31.827290,-50.000000,-29.000000,6.000000
361.178558,31.829370,-68.000000,-30.000000,0.000000
336.552551,31.831171,-41.000000,-35.000000,13.000000
284.677185,31.803663,-49.000000,-31.000000,0.000000
185.902161,31.779003,-128.000000,-31.000000,-49.000000
49.739376,31.760302,-56.000000,-31.000000,3.000000
-101.081345,31.750360,-32.000000,-34.000000,29.000000
-256.035706,31.751474,-65.000000,-35.000000,-10.000000
-442.555695,31.765181,-92.000000,-34.000000,-23.000000
-650.005310,31.791994,-10.000000,-28.000000,48.000000
-801.192017,31.831171,-5.000000,-36.000000,35.000000
-832.081726,31.851570,-46.000000,-31.000000,-15.000000
-781.815674,31.881865,-128.000000,-39.000000,-74.000000
-734.678162,31.920637,-6.000000,-30.000000,24.000000
-674.989075,31.965611,37.000000,-38.000000,81.000000
-558.911133,32.014015,0.000000,-32.000000,10.000000
-286.615662,32.062935,-128.000000,-49.000000,-93.000000
99.439049,32.109566,-9.000000,-22.000000,61.000000
361.914032,32.151386,48.000000,-37.000000,79.000000
442.180115,32.157234,31.000000,-40.000000,-4.000000
447.988525,32.157513,-128.000000,-52.000000,-122.000000
467.385101,32.154064,3.000000,-23.000000,43.000000
520.922363,32.148994,58.000000,-21.000000,53.000000
534.046387,32.144489,-46.000000,-37.000000,-47.000000
422.269958,32.142532,-128.000000,-27.000000,-56.000000
241.586258,32.144619,1.000000,-32.000000,53.000000
57.490700,32.151386,17.000000,-29.000000,26.000000
-99.392967,32.133392,-10.000000,-30.000000,-4.000000
-191.204651,32.121189,-128.000000,-29.000000,-48.000000
-211.695694,32.115314,-82.000000,-29.000000,-17.000000
-206.569672,32.115398,-37.000000,-38.000000,5.000000
-214.431046,32.120449,-42.000000,-33.000000,-7.000000
-221.599335,32.129112,-66.000000,-33.000000,-24.000000
-204.832947,32.139915,-62.000000,-35.000000,-22.000000
-171.630768,32.151386,-47.000000,-34.000000,-16.000000
-153.218765,32.133152,-50.000000,-33.000000,-21.000000
-149.807343,32.116123,-58.000000,-34.000000,-26.000000
-127.754379,32.102428,-50.000000,-27.000000,-19.000000
-68.953659,32.094261,-53.000000,-30.000000,-20.000000
6.804725,32.093693,-53.000000,-33.000000,-21.000000
70.695923,32.102470,-52.000000,-33.000000,-21.000000
116.583641,32.121666,-47.000000,-33.000000,-20.000000
148.217911,32.151386,-50.000000,-37.000000,-24.000000
160.100403,32.161507,-49.000000,-39.000000,-19.000000
141.421249,32.181740,-45.000000,-38.000000,-18.000000
99.111885,32.211628,-52.000000,-39.000000,-26.000000
54.796349,32.249657,-51.000000,-31.000000,-29.000000
18.481937,32.293530,-48.000000,-26.000000,-27.000000
-19.411097,32.340477,-48.000000,-29.000000,-26.000000
-59.545914,32.387497,-48.000000,-38.000000,-25.000000
-76.189735,32.431572,-50.000000,-39.000000,-25.000000
-50.970234,32.440819,-42.000000,-42.000000,-23.000000
-6.436738,32.444778,-45.000000,-44.000000,-25.000000
24.673056,32.444427,-45.000000,-41.000000,-28.000000
51.709846,32.441132,-44.000000,-37.000000,-32.000000
109.763153,32.436539,-46.000000,-39.000000,-28.000000
200.463776,32.432430,-46.000000,-45.000000,-26.000000
291.898407,32.430401,-50.000000,-43.000000,-22.000000
354.581451,32.431572,-40.000000,-36.000000,-18.000000
375.458832,32.407253,-41.000000,-42.000000,-21.000000
377.746674,32.388950,-47.000000,-41.000000,-20.000000
406.126923,32.378223,-38.000000,-41.000000,-16.000000
435.108063,32.375648,-43.000000,-42.000000,-20.000000
369.555634,32.380955,-44.000000,-40.000000,-16.000000
213.324448,32.393166,-46.000000,-42.000000,-14.000000
113.425369,32.410717,-41.000000,-41.000000,-9.000000
144.516678,32.431572,-47.000000,-43.000000,-11.000000
194.910446,32.424316,-49.000000,-42.000000,-8.000000
154.000900,32.418400,-41.000000,-42.000000,5.000000
66.851540,32.414227,-52.000000,-44.000000,-3.000000
18.950821,32.412174,-50.000000,-41.000000,-3.000000
-0.694225,32.412628,-53.000000,-46.000000,-5.000000
-43.156013,32.415947,-49.000000,-44.000000,-3.000000
-116.449211,32.422318,-45.000000,-45.000000,-2.000000
-208.415939,32.431572,-47.000000,-45.000000,-3.000000
-295.353485,32.414028,-49.000000,-45.000000,-5.000000
-309.231445,32.400475,-47.000000,-45.000000,-3.000000
-196.503281,32.392132,-47.000000,-44.000000,-3.000000
-20.169157,32.389606,-44.000000,-45.000000,-1.000000
87.936234,32.392944,-46.000000,-45.000000,-1.000000
72.613716,32.401718,-42.000000,-45.000000,1.000000
-9.260726,32.415043,-46.000000,-44.000000,-1.000000
-62.943970,32.431572,-49.000000,-44.000000,-1.000000
-36.997356,32.420521,-49.000000,-45.000000,0.000000
29.539627,32.411816,-50.000000,-43.000000,0.000000
60.989754,32.406139,-50.000000,-45.000000,-3.000000
72.154488,32.403938,-50.000000,-44.000000,1.000000
146.178635,32.405464,-48.000000,-43.000000,-1.000000
264.679260,32.410782,-48.000000,-45.000000,1.000000
305.925171,32.419682,-51.000000,-44.000000,0.000000
221.929413,32.431572,-47.000000,-44.000000,2.000000
92.789726,32.416374,-45.000000,-43.000000,4.000000
12.181753,32.404560,-49.000000,-44.000000,0.000000
3.136332,32.397167,-50.000000,-44.000000,2.000000
25.306562,32.394745,-49.000000,-44.000000,0.000000
26.469469,32.397423,-48.000000,-43.000000,3.000000
-7.456147,32.404945,-47.000000,-44.000000,1.000000
-45.250107,32.416687,-48.000000,-44.000000,1.000000
-34.614822,32.431572,-50.000000,-44.000000,1.000000
25.380041,32.418972,-47.000000,-44.000000,2.000000
64.663269,32.409161,-48.000000,-43.000000,2.000000
40.684914,32.402935,-48.000000,-44.000000,2.000000
-19.423927,32.400742,-47.000000,-43.000000,2.000000
-75.725822,32.402752,-48.000000,-45.000000,0.000000
-103.846352,32.408882,-50.000000,-43.000000,1.000000
-88.271538,32.418743,-49.000000,-44.000000,1.000000
-27.493181,32.431572,-47.000000,-43.000000,2.000000
57.935894,32.417038,-49.000000,-44.000000,0.000000
124.333488,32.405682,-48.000000,-44.000000,0.000000
139.050873,32.398495,-48.000000,-43.000000,0.000000
113.813988,32.396038,-48.000000,-43.000000,-1.000000
85.229828,32.398483,-49.000000,-43.000000,0.000000
70.910622,32.405659,-46.000000,-43.000000,1.000000
62.161930,32.417019,-49.000000,-43.000000,-2.000000
56.011318,32.431572,-53.000000,-42.000000,-1.000000
55.894032,32.418747,-52.000000,-44.000000,-4.000000
52.187973,32.408844,-48.000000,-44.000000,-2.000000
35.724010,32.402653,-48.000000,-45.000000,-1.000000
16.769615,32.400581,-48.000000,-42.000000,2.000000
9.186706,32.402740,-48.000000,-43.000000,1.000000
9.910347,32.408974,-50.000000,-44.000000,1.000000
6.906578,32.418854,-49.000000,-43.000000,2.000000
-1.355766,32.431572,-49.000000,-43.000000,4.000000
-5.746024,32.416805,-49.000000,-43.000000,1.000000
-1.997471,32.405128,-47.000000,-44.000000,1.000000
4.772968,32.397610,-45.000000,-45.000000,3.000000
9.246634,32.394886,-50.000000,-43.000000,5.000000
11.784641,32.397224,-49.000000,-43.000000,4.000000
13.658957,32.404537,-50.000000,-43.000000,5.000000
12.461322,32.416317,-50.000000,-46.000000,3.000000
5.176706,32.431572,-46.000000,-44.000000,7.000000
-7.181172,32.419544,-44.000000,-43.000000,8.000000
-19.928638,32.410595,-47.000000,-45.000000,4.000000
-28.218746,32.405342,-49.000000,-43.000000,7.000000
-29.198635,32.403996,-51.000000,-43.000000,10.000000
-22.586597,32.406437,-45.000000,-43.000000,12.000000
-10.882462,32.412308,-30.000000,-45.000000,14.000000
1.674433,32.420994,-38.000000,-47.000000,15.000000
11.413421,32.431572,-50.000000,-44.000000,11.000000
16.729595,32.413551,-27.000000,-51.000000,12.000000
17.485004,32.397732,-15.000000,-44.000000,17.000000
13.995371,32.385300,-40.000000,-48.000000,5.000000
7.319640,32.377094,-42.000000,-41.000000,4.000000
-0.690854,32.373631,-40.000000,-43.000000,3.000000
-9.534787,32.375099,-41.000000,-47.000000,2.000000
-21.871464,32.381306,-24.000000,-41.000000,14.000000
-40.538673,32.391544,-33.000000,-46.000000,9.000000
-63.777054,32.375332,-68.000000,-48.000000,-17.000000
-86.755959,32.363247,-37.000000,-42.000000,-3.000000
-109.039673,32.356075,-40.000000,-43.000000,-5.000000
-135.765823,32.354111,-39.000000,-42.000000,-6.000000
-168.725311,32.357254,-56.000000,-40.000000,-2.000000
-201.667084,32.365093,-61.000000,-40.000000,-3.000000
-230.013351,32.376888,-63.000000,-42.000000,0.000000
-261.027588,32.391544,-43.000000,-30.000000,20.000000
-304.865082,32.378353,-77.000000,-45.000000,11.000000
-359.114594,32.367870,-50.000000,-38.000000,12.000000
-411.949524,32.361038,-52.000000,-45.000000,12.000000
-458.450592,32.358448,-55.000000,-41.000000,10.000000
-506.128204,32.360394,-43.000000,-43.000000,15.000000
-568.943604,32.366879,-47.000000,-39.000000,17.000000
-650.679321,32.377537,-48.000000,-37.000000,16.000000
-717.485291,32.391544,-44.000000,-34.000000,17.000000
-712.506775,32.378292,-44.000000,-38.000000,13.000000
-623.966370,32.368332,-56.000000,-28.000000,3.000000
-503.293365,32.362423,-61.000000,-36.000000,2.000000
-399.329163,32.360851,-51.000000,-35.000000,2.000000
-319.704193,32.363537,-56.000000,-37.000000,2.000000
-260.418213,32.370075,-66.000000,-34.000000,-4.000000
-222.444717,32.379765,-58.000000,-33.000000,-2.000000
-198.240128,32.391544,-53.000000,-35.000000,-6.000000
-180.606445,32.374722,-60.000000,-36.000000,-16.000000
-178.443237,32.359940,-56.000000,-36.000000,-11.000000
-203.799622,32.348232,-51.000000,-35.000000,-9.000000
-248.647369,32.340324,-54.000000,-39.000000,-10.000000
-286.823792,32.336674,-56.000000,-38.000000,-8.000000
-296.143127,32.337475,-52.000000,-37.000000,-6.000000
-268.907806,32.342609,-51.000000,-38.000000,-7.000000
-205.882050,32.351521,-53.000000,-41.000000,-3.000000
-110.971848,32.333870,-49.000000,-40.000000,-4.000000
2.069473,32.320473,-50.000000,-39.000000,-1.000000
114.063362,32.312321,-50.000000,-40.000000,2.000000
218.307968,32.309891,-53.000000,-40.000000,-3.000000
328.684296,32.313194,-56.000000,-40.000000,-3.000000
458.485046,32.321842,-51.000000,-45.000000,1.000000
591.902832,32.335033,-52.000000,-43.000000,5.000000
693.885681,32.351521,-50.000000,-41.000000,10.000000
740.104431,32.340317,-45.000000,-43.000000,15.000000
733.671814,32.331715,-46.000000,-42.000000,15.000000
687.646240,32.326347,-44.000000,-41.000000,15.000000
610.822632,32.324535,-44.000000,-44.000000,12.000000
519.860046,32.326366,-46.000000,-43.000000,10.000000
441.246857,32.331745,-48.000000,-42.000000,7.000000
402.948608,32.340343,-44.000000,-44.000000,14.000000
407.443726,32.351521,-44.000000,-43.000000,12.000000
451.945801,32.334988,-47.000000,-42.000000,11.000000
471.884888,32.321732,-45.000000,-40.000000,16.000000
389.398071,32.313023,-43.000000,-47.000000,20.000000
270.009674,32.309673,-45.000000,-46.000000,18.000000
178.876556,32.312092,-46.000000,-43.000000,14.000000
81.363937,32.320271,-51.000000,-38.000000,15.000000
-30.961439,32.333748,-41.000000,-40.000000,23.000000
-142.628845,32.351521,-50.000000,-39.000000,17.000000
-263.302490,32.342754,-48.000000,-41.000000,18.000000
-373.856995,32.337765,-55.000000,-38.000000,13.000000
-415.680511,32.337074,-52.000000,-41.000000,13.000000
-370.182281,32.340794,-54.000000,-41.000000,11.000000
-289.963165,32.348698,-46.000000,-43.000000,16.000000
-243.601471,32.360317,-43.000000,-44.000000,17.000000
-230.218002,32.374939,-37.000000,-44.000000,21.000000
-230.180008,32.391544,-41.000000,-44.000000,20.000000
-225.210800,32.379517,-53.000000,-43.000000,16.000000
-175.629333,32.369579,-48.000000,-42.000000,18.000000
-107.594032,32.362843,-31.000000,-42.000000,29.000000
-92.951454,32.360046,-30.000000,-42.000000,31.000000
-140.639786,32.361626,-37.000000,-42.000000,29.000000
-193.836349,32.367680,-35.000000,-42.000000,30.000000
-213.451385,32.377914,-36.000000,-41.000000,29.000000
-188.389313,32.391544,-38.000000,-39.000000,35.000000
-120.580429,32.377964,-43.000000,-41.000000,32.000000
-25.882690,32.367725,-25.000000,-40.000000,40.000000
64.621628,32.361572,-16.000000,-39.000000,46.000000
129.625763,32.359810,-17.000000,-40.000000,48.000000
171.587387,32.362389,-21.000000,-39.000000,47.000000
198.440491,32.368980,-26.000000,-41.000000,41.000000
210.295029,32.379002,-20.000000,-39.000000,45.000000
208.773926,32.391544,-23.000000,-40.000000,50.000000
212.514740,32.376118,3.000000,-37.000000,59.000000
242.137726,32.363537,-30.000000,-42.000000,40.000000
299.771912,32.355022,-11.000000,-42.000000,51.000000
372.899780,32.351437,-16.000000,-37.000000,48.000000
455.048126,32.353321,-34.000000,-40.000000,39.000000
551.433472,32.360878,-29.000000,-40.000000,46.000000
669.228394,32.373871,-17.000000,-39.000000,49.000000
796.397095,32.391544,-35.000000,-41.000000,28.000000
882.231140,32.383270,-25.000000,-36.000000,32.000000
872.220520,32.379475,-37.000000,-41.000000,11.000000
770.269226,32.380730,-46.000000,-43.000000,4.000000
631.239502,32.387089,-47.000000,-42.000000,2.000000
493.571289,32.398193,-44.000000,-39.000000,3.000000
361.038635,32.413357,-50.000000,-41.000000,-6.000000
232.770752,32.431591,-46.000000,-40.000000,-9.000000
109.186073,32.451584,-46.000000,-40.000000,-16.000000
-15.022046,32.442455,-43.000000,-37.000000,-14.000000
-138.605698,32.434677,-44.000000,-36.000000,-17.000000
-248.892197,32.429184,-44.000000,-37.000000,-23.000000
-339.460052,32.426662,-37.000000,-35.000000,-25.000000
-423.042267,32.427570,-48.000000,-35.000000,-27.000000
-514.046448,32.432148,-46.000000,-35.000000,-27.000000
-596.836792,32.440319,-52.000000,-34.000000,-32.000000
-632.337585,32.451584,-56.000000,-34.000000,-35.000000
-607.282166,32.435673,-52.000000,-32.000000,-36.000000
-547.946228,32.423424,-51.000000,-31.000000,-37.000000
-477.619049,32.415871,-44.000000,-29.000000,-37.000000
-400.550110,32.413513,-52.000000,-33.000000,-42.000000
-329.177673,32.416424,-51.000000,-32.000000,-42.000000
-280.292145,32.424282,-48.000000,-29.000000,-39.000000
-243.494659,32.436378,-42.000000,-30.000000,-34.000000
-194.325745,32.451584,-43.000000,-30.000000,-38.000000
-131.357315,32.439091,-44.000000,-28.000000,-38.000000
-73.452309,32.429310,-46.000000,-29.000000,-39.000000
-32.740650,32.423054,-44.000000,-31.000000,-43.000000
-9.038648,32.420792,-42.000000,-29.000000,-39.000000
-0.798545,32.422726,-27.000000,-31.000000,-29.000000
2.901755,32.428806,-39.000000,-28.000000,-38.000000
23.018808,32.438679,-42.000000,-27.000000,-34.000000
53.931873,32.451584,-45.000000,-25.000000,-37.000000
69.576714,32.437057,-44.000000,-28.000000,-35.000000
81.982948,32.425781,-48.000000,-26.000000,-36.000000
115.540489,32.418720,-42.000000,-25.000000,-34.000000
135.130127,32.416378,-42.000000,-24.000000,-36.000000
103.116524,32.418892,-46.000000,-24.000000,-38.000000
70.905327,32.426048,-45.000000,-24.000000,-35.000000
98.226089,32.437275,-45.000000,-21.000000,-33.000000
146.577026,32.451584,-45.000000,-21.000000,-33.000000
150.400574,32.438293,-48.000000,-24.000000,-35.000000
112.660820,32.427921,-52.000000,-21.000000,-40.000000
67.124046,32.421337,-43.000000,-22.000000,-37.000000
23.029377,32.419025,-48.000000,-21.000000,-39.000000
-19.392387,32.421177,-48.000000,-16.000000,-40.000000
-57.309479,32.427677,-55.000000,-18.000000,-38.000000
-94.372231,32.438095,-54.000000,-15.000000,-37.000000
-131.283966,32.451584,-53.000000,-12.000000,-33.000000
-164.135345,32.437592,-56.000000,-13.000000,-39.000000
-195.015472,32.426723,-66.000000,-10.000000,-37.000000
-220.377518,32.419899,-62.000000,-12.000000,-37.000000
-227.303284,32.417606,-53.000000,-11.000000,-37.000000
-213.920502,32.419983,-56.000000,-9.000000,-39.000000
-190.348175,32.426853,-56.000000,-9.000000,-33.000000
-163.499939,32.437695,-57.000000,-10.000000,-34.000000
-139.297943,32.451584,-58.000000,-12.000000,-31.000000
-120.495827,32.437866,-58.000000,-11.000000,-29.000000
-88.297401,32.427151,-56.000000,-10.000000,-29.000000
-23.127069,32.420357,-55.000000,-11.000000,-28.000000
45.967251,32.417988,-58.000000,-12.000000,-28.000000
64.822289,32.420235,-57.000000,-9.000000,-27.000000
36.976635,32.426968,-58.000000,-13.000000,-28.000000
25.863714,32.437717,-58.000000,-11.000000,-28.000000
70.898048,32.451584,-60.000000,-10.000000,-27.000000
160.736069,32.437927,-57.000000,-10.000000,-26.000000
255.671829,32.427345,-57.000000,-11.000000,-27.000000
294.787567,32.420708,-59.000000,-11.000000,-24.000000
241.154129,32.418484,-59.000000,-11.000000,-25.000000
147.410568,32.420795,-57.000000,-12.000000,-25.000000
94.756546,32.427479,-56.000000,-11.000000,-22.000000
74.683365,32.438038,-59.000000,-12.000000,-29.000000
23.491478,32.451584,-56.000000,-11.000000,-24.000000
-75.824821,32.437515,-59.000000,-11.000000,-26.000000
-191.405975,32.426495,-59.000000,-11.000000,-25.000000
-302.429504,32.419479,-60.000000,-13.000000,-25.000000
-385.439301,32.417019,-60.000000,-13.000000,-27.000000
-406.031952,32.419315,-57.000000,-12.000000,-23.000000
-361.021698,32.426243,-58.000000,-13.000000,-26.000000
-278.901398,32.437313,-60.000000,-12.000000,-24.000000
-190.114502,32.451584,-61.000000,-13.000000,-26.000000
-83.108688,32.438366,-58.000000,-13.000000,-22.000000
12.588393,32.428185,-60.000000,-12.000000,-22.000000
40.490620,32.421856,-59.000000,-11.000000,-23.000000
24.242754,32.419788,-60.000000,-13.000000,-23.000000
5.832229,32.422070,-61.000000,-12.000000,-25.000000
5.867306,32.428513,-58.000000,-13.000000,-22.000000
31.060772,32.438633,-58.000000,-12.000000,-24.000000
82.873360,32.451584,-59.000000,-12.000000,-22.000000
152.969406,32.436848,-61.000000,-12.000000,-22.000000
237.169083,32.425167,-60.000000,-12.000000,-22.000000
332.504120,32.417606,-59.000000,-12.000000,-22.000000
426.572052,32.414803,-61.000000,-12.000000,-21.000000
486.941589,32.417049,-59.000000,-12.000000,-20.000000
491.149658,32.424297,-60.000000,-12.000000,-20.000000
449.835297,32.436111,-63.000000,-13.000000,-22.000000
388.218628,32.451584,-59.000000,-13.000000,-19.000000
325.681061,32.440041,-56.000000,-14.000000,-17.000000
266.892517,32.431980,-62.000000,-13.000000,-19.000000
205.083786,32.428143,-64.000000,-13.000000,-22.000000
129.964417,32.428833,-61.000000,-12.000000,-18.000000
42.890419,32.434010,-60.000000,-13.000000,-18.000000
-46.382164,32.443340,-64.000000,-14.000000,-20.000000
-125.931503,32.456203,-86.000000,6.000000,-45.000000
-182.349304,32.471600,-64.000000,-22.000000,-23.000000
-206.478378,32.458885,-57.000000,-12.000000,-14.000000
-204.462616,32.448711,-67.000000,-13.000000,-18.000000
-199.040421,32.442059,-71.000000,-16.000000,-21.000000
-208.470642,32.439537,-61.000000,-14.000000,-9.000000
-224.523499,32.441437,-54.000000,-11.000000,-6.000000
-219.289520,32.447739,-73.000000,-14.000000,-21.000000
-182.525955,32.458065,-74.000000,-17.000000,-17.000000
-138.517700,32.471600,-65.000000,-14.000000,-6.000000
-117.755516,32.457756,-59.000000,-11.000000,1.000000
-124.289261,32.447144,-64.000000,-16.000000,1.000000
-133.773758,32.440609,-63.000000,-22.000000,-6.000000
-123.318527,32.438553,-70.000000,-19.000000,-13.000000
-99.936684,32.441036,-67.000000,-16.000000,-6.000000
-85.049515,32.447807,-73.000000,-19.000000,-21.000000
-75.861084,32.458302,-66.000000,-15.000000,-2.000000
-53.871910,32.471600,-69.000000,-17.000000,-13.000000
-25.300957,32.457096,-67.000000,-18.000000,-11.000000
-10.858801,32.445507,-69.000000,-20.000000,-6.000000
-7.861735,32.437878,-66.000000,-21.000000,-7.000000
-0.865059,32.434887,-68.000000,-25.000000,-10.000000
9.937832,32.436897,-50.000000,-28.000000,8.000000
18.555305,32.443966,-53.000000,-29.000000,6.000000
25.702650,32.455788,-50.000000,-36.000000,6.000000
28.855509,32.471600,-51.000000,-35.000000,7.000000
27.119867,32.460835,-57.000000,-38.000000,6.000000
31.068354,32.454109,-45.000000,-39.000000,10.000000
43.122631,32.452209,-40.000000,-41.000000,11.000000
45.652851,32.455429,-44.000000,-43.000000,10.000000
31.980896,32.463650,-35.000000,-45.000000,13.000000
20.900621,32.476387,-46.000000,-43.000000,4.000000
24.846272,32.492794,-45.000000,-42.000000,4.000000
35.371147,32.511627,-38.000000,-42.000000,10.000000
41.303585,32.501945,-35.000000,-48.000000,14.000000
40.232922,32.494148,-25.000000,-53.000000,17.000000
40.372238,32.488995,-37.000000,-48.000000,14.000000
48.411144,32.486950,-31.000000,-47.000000,13.000000
50.173054,32.488266,-47.000000,-49.000000,15.000000
34.436615,32.493000,-45.000000,-42.000000,10.000000
26.055653,32.500961,-43.000000,-43.000000,12.000000
44.398056,32.511627,-48.000000,-43.000000,8.000000
66.091927,32.494778,-49.000000,-44.000000,10.000000
87.354301,32.481438,-48.000000,-46.000000,4.000000
141.935013,32.472866,-44.000000,-46.000000,0.000000
210.212448,32.469810,-47.000000,-50.000000,3.000000
232.261841,32.472565,-49.000000,-50.000000,8.000000
233.829208,32.480972,-40.000000,-48.000000,8.000000
293.758728,32.494392,-39.000000,-50.000000,2.000000
390.228394,32.511627,-48.000000,-47.000000,4.000000
425.044922,32.501633,-47.000000,-46.000000,5.000000
372.647186,32.494545,-35.000000,-49.000000,4.000000
280.929749,32.490730,-40.000000,-49.000000,6.000000
179.687683,32.490170,-47.000000,-47.000000,8.000000
90.554123,32.492561,-42.000000,-48.000000,6.000000
50.553993,32.497421,-43.000000,-48.000000,6.000000
50.622684,32.504078,-45.000000,-45.000000,6.000000
26.204967,32.511627,-37.000000,-50.000000,7.000000
-53.021858,32.489620,-38.000000,-49.000000,8.000000
-153.981583,32.469040,-46.000000,-48.000000,6.000000
-243.702942,32.451279,-43.000000,-51.000000,5.000000
-316.988647,32.437424,-41.000000,-49.000000,8.000000
-375.135498,32.428268,-46.000000,-49.000000,6.000000
-428.053314,32.424286,-41.000000,-49.000000,5.000000
-499.622894,32.425541,-31.000000,-41.000000,12.000000
-593.805176,32.431572,-44.000000,-45.000000,6.000000
-660.716736,32.412037,-44.000000,-48.000000,7.000000
-637.214172,32.397675,-40.000000,-51.000000,11.000000
-522.525635,32.389317,-38.000000,-51.000000,6.000000
-370.867401,32.387234,-41.000000,-50.000000,2.000000
-220.660477,32.391209,-49.000000,-46.000000,5.000000
-79.835503,32.400646,-43.000000,-48.000000,8.000000
43.198521,32.414558,-46.000000,-47.000000,3.000000
144.278992,32.431572,-38.000000,-50.000000,7.000000
243.647278,32.420631,-42.000000,-46.000000,8.000000
367.328308,32.412045,-45.000000,-48.000000,6.000000
504.035187,32.406506,-45.000000,-46.000000,6.000000
594.989990,32.404434,-41.000000,-45.000000,9.000000
595.356262,32.406036,-45.000000,-48.000000,10.000000
535.231934,32.411316,-40.000000,-49.000000,11.000000
479.043243,32.420033,-42.000000,-49.000000,11.000000
446.636414,32.431572,-42.000000,-45.000000,12.000000
420.631805,32.415665,-42.000000,-51.000000,13.000000
394.789886,32.403183,-39.000000,-48.000000,16.000000
368.079376,32.395245,-42.000000,-45.000000,16.000000
326.040649,32.392487,-41.000000,-45.000000,17.000000
261.910675,32.395119,-40.000000,-47.000000,15.000000
191.554291,32.402973,-40.000000,-47.000000,16.000000
132.380676,32.415470,-42.000000,-49.000000,11.000000
84.187508,32.431572,-46.000000,-47.000000,13.000000
40.251274,32.420544,-46.000000,-52.000000,6.000000
4.429604,32.412800,-45.000000,-51.000000,7.000000
-13.886600,32.409058,-41.000000,-46.000000,15.000000
-15.545458,32.409657,-41.000000,-49.000000,16.000000
-13.249307,32.414619,-36.000000,-51.000000,12.000000
-18.518446,32.423691,-41.000000,-42.000000,15.000000
-33.924927,32.436325,-42.000000,-42.000000,16.000000
-58.017021,32.451584,-40.000000,-52.000000,9.000000
-91.919861,32.438904,-43.000000,-47.000000,10.000000
-137.679550,32.428890,-37.000000,-59.000000,14.000000
-191.497040,32.422470,-54.000000,-52.000000,19.000000
-244.234299,32.420177,-37.000000,-53.000000,16.000000
-289.828094,32.422211,-30.000000,-51.000000,19.000000
-331.169250,32.428474,-47.000000,-46.000000,18.000000
-373.186279,32.438538,-43.000000,-53.000000,17.000000
-413.417542,32.451584,-42.000000,-49.000000,20.000000
-446.296234,32.437126,-40.000000,-51.000000,18.000000
-474.700287,32.425838,-40.000000,-55.000000,19.000000
-505.083252,32.418697,-41.000000,-51.000000,18.000000
-533.663696,32.416241,-43.000000,-44.000000,21.000000
-561.662170,32.418655,-39.000000,-49.000000,22.000000
-603.344604,32.425781,-29.000000,-41.000000,21.000000
-642.502747,32.437084,-41.000000,-40.000000,22.000000
-622.702026,32.451584,-43.000000,-46.000000,17.000000
-516.752441,32.438587,-44.000000,-43.000000,20.000000
-355.722595,32.428600,-37.000000,-42.000000,24.000000
-193.679260,32.422401,-36.000000,-43.000000,20.000000
-102.878395,32.420380,-37.000000,-48.000000,18.000000
-150.194321,32.422611,-40.000000,-47.000000,15.000000
-301.356995,32.428921,-48.000000,-47.000000,13.000000
-426.564972,32.438850,-43.000000,-48.000000,12.000000
-455.331726,32.451584,-38.000000,-46.000000,15.000000
-430.098663,32.436668,-43.000000,-46.000000,9.000000
-397.348358,32.424896,-44.000000,-48.000000,10.000000
-347.266113,32.417347,-46.000000,-45.000000,7.000000
-271.310883,32.414654,-40.000000,-50.000000,8.000000
-185.537384,32.417072,-55.000000,-47.000000,2.000000
-97.492134,32.424480,-53.000000,-53.000000,0.000000
-6.663205,32.436329,-49.000000,-47.000000,2.000000
70.977135,32.451584,-48.000000,-44.000000,3.000000
104.235023,32.439445,-46.000000,-45.000000,2.000000
93.227165,32.430286,-44.000000,-42.000000,3.000000
68.508263,32.424747,-52.000000,-47.000000,-3.000000
68.059441,32.423080,-45.000000,-41.000000,1.000000
100.751732,32.425274,-49.000000,-68.000000,-5.000000
158.294662,32.431095,-46.000000,-37.000000,-1.000000
239.291168,32.440105,-43.000000,-45.000000,-4.000000
347.293762,32.451584,-49.000000,-44.000000,-5.000000
494.200409,32.435226,-51.000000,-45.000000,-5.000000
645.427795,32.422035,-48.000000,-50.000000,-6.000000
718.901855,32.413315,-50.000000,-53.000000,-7.000000
631.517395,32.409931,-29.000000,-34.000000,5.000000
412.361267,32.412338,-55.000000,-43.000000,-9.000000
170.226883,32.420532,-54.000000,-41.000000,-8.000000
-6.561308,32.433990,-51.000000,-42.000000,-4.000000
-1.372663,32.451584,-45.000000,-43.000000,-5.000000
101.867737,32.442287,-43.000000,-37.000000,-3.000000
198.170898,32.436119,-56.000000,-41.000000,-8.000000
278.695496,32.433281,-56.000000,-41.000000,-8.000000
302.390839,32.433514,-51.000000,-43.000000,-8.000000
238.832794,32.436275,-46.000000,-42.000000,-6.000000
111.867821,32.440823,-50.000000,-41.000000,-6.000000
-23.338293,32.446270,-53.000000,-40.000000,-8.000000
-126.770149,32.451584,-47.000000,-41.000000,-5.000000
-158.124741,32.426289,-47.000000,-39.000000,-3.000000
-115.357452,32.401413,-50.000000,-41.000000,-6.000000
-51.221889,32.378525,-52.000000,-43.000000,-8.000000
-38.099579,32.358974,-48.000000,-39.000000,-4.000000
-74.803673,32.343880,-49.000000,-40.000000,-5.000000
-125.374901,32.334087,-51.000000,-42.000000,-9.000000
-159.456146,32.330009,-52.000000,-42.000000,-8.000000
-159.850769,32.331505,-50.000000,-42.000000,-6.000000
-128.338043,32.308491,-49.000000,-41.000000,-5.000000
-87.122528,32.291824,-52.000000,-43.000000,-6.000000
-66.501663,32.282368,-48.000000,-40.000000,-2.000000
-74.373383,32.280308,-50.000000,-41.000000,-6.000000
-98.212898,32.285259,-49.000000,-41.000000,-4.000000
-121.089607,32.296364,-54.000000,-38.000000,-4.000000
-138.477966,32.312344,-52.000000,-40.000000,-4.000000
-138.945969,32.331505,-51.000000,-35.000000,-2.000000
-113.036430,32.322536,-54.000000,-39.000000,1.000000
-68.131187,32.315475,-58.000000,-40.000000,-1.000000
-26.391245,32.310852,-63.000000,-40.000000,-1.000000
-6.586187,32.309010,-51.000000,-40.000000,3.000000
-11.064817,32.310158,-44.000000,-39.000000,7.000000
-27.154657,32.314400,-63.000000,-34.000000,1.000000
-40.189213,32.321648,-88.000000,-10.000000,18.000000
-40.968811,32.331505,-52.000000,-31.000000,5.000000
-26.013069,32.313911,-61.000000,-42.000000,-4.000000
2.785466,32.299973,-64.000000,-37.000000,-4.000000
38.788078,32.291008,-60.000000,-35.000000,3.000000
71.604240,32.287807,-43.000000,-29.000000,11.000000
93.029175,32.290668,-42.000000,-30.000000,6.000000
101.507271,32.299423,-53.000000,-36.000000,-4.000000
101.029305,32.313427,-64.000000,-36.000000,-4.000000
95.059608,32.331505,-66.000000,-35.000000,-4.000000
84.474640,32.322704,-51.000000,-37.000000,4.000000
72.132240,32.317234,-47.000000,-34.000000,6.000000
66.204063,32.315594,-57.000000,-36.000000,4.000000
73.316109,32.317936,-61.000000,-39.000000,2.000000
90.085632,32.324142,-59.000000,-36.000000,6.000000
108.491104,32.333889,-54.000000,-37.000000,6.000000
127.944702,32.346630,-48.000000,-34.000000,11.000000
155.285660,32.361523,-49.000000,-34.000000,12.000000
191.017380,32.348122,-54.000000,-36.000000,9.000000
227.503372,32.337242,-52.000000,-35.000000,9.000000
262.826904,32.330036,-55.000000,-35.000000,11.000000
302.965851,32.327240,-55.000000,-35.000000,11.000000
354.984131,32.329212,-40.000000,-34.000000,4.000000
421.830017,32.335953,-67.000000,-42.000000,12.000000
483.379974,32.347031,-55.000000,-35.000000,17.000000
486.466827,32.361523,-54.000000,-36.000000,18.000000
395.467346,32.348736,-51.000000,-33.000000,16.000000
246.191559,32.339092,-47.000000,-32.000000,11.000000
101.219246,32.333290,-64.000000,-37.000000,11.000000
-18.403723,32.331596,-53.000000,-35.000000,13.000000
-119.093864,32.333977,-51.000000,-35.000000,17.000000
-188.231247,32.340157,-36.000000,-33.000000,19.000000
-206.633545,32.349613,-68.000000,-35.000000,16.000000
-169.422104,32.361523,-58.000000,-38.000000,11.000000
-93.878395,32.345470,-50.000000,-33.000000,18.000000
-20.252625,32.332371,-65.000000,-29.000000,19.000000
19.218281,32.323498,-61.000000,-37.000000,19.000000
22.764074,32.319763,-52.000000,-30.000000,17.000000
36.308338,32.321728,-54.000000,-33.000000,13.000000
106.950012,32.329586,-43.000000,-32.000000,20.000000
235.595840,32.343113,-46.000000,-31.000000,22.000000
363.333557,32.361523,-53.000000,-33.000000,20.000000
447.078217,32.354168,-42.000000,-30.000000,20.000000
501.007050,32.351463,-55.000000,-33.000000,17.000000
533.682251,32.353954,-53.000000,-31.000000,17.000000
552.137817,32.361660,-55.000000,-33.000000,17.000000
590.165100,32.374172,-48.000000,-32.000000,18.000000
709.303772,32.390751,-56.000000,-31.000000,16.000000
866.008423,32.410343,-59.000000,-32.000000,16.000000
949.035706,32.431572,-54.000000,-35.000000,12.000000
858.918457,32.423470,-50.000000,-34.000000,13.000000
454.370483,32.416470,-59.000000,-33.000000,11.000000
-92.822037,32.411461,-59.000000,-33.000000,11.000000
-505.239197,32.409081,-55.000000,-32.000000,11.000000
-729.121338,32.409790,-53.000000,-33.000000,12.000000
-804.275757,32.413849,-54.000000,-31.000000,13.000000
-752.746521,32.421246,-53.000000,-32.000000,13.000000
-636.200073,32.431572,-51.000000,-32.000000,13.000000
-523.404968,32.414665,-54.000000,-33.000000,12.000000
-431.554565,32.401520,-55.000000,-34.000000,10.000000
-335.942719,32.393299,-52.000000,-35.000000,9.000000
-229.414673,32.390621,-54.000000,-36.000000,5.000000
-155.255051,32.393631,-53.000000,-37.000000,2.000000
-137.220963,32.402027,-46.000000,-35.000000,2.000000
-158.423294,32.415081,-56.000000,-34.000000,0.000000
-181.424408,32.431572,-57.000000,-34.000000,-1.000000
-198.659866,32.420563,-53.000000,-35.000000,-3.000000
-215.851151,32.412262,-55.000000,-35.000000,-5.000000
-229.870132,32.407257,-59.000000,-36.000000,-3.000000
-229.510117,32.405792,-58.000000,-35.000000,-4.000000
-195.677780,32.407852,-58.000000,-36.000000,-9.000000
-141.089645,32.413208,-57.000000,-36.000000,-8.000000
-91.336472,32.421383,-56.000000,-37.000000,-7.000000
-71.405670,32.431572,-55.000000,-37.000000,-8.000000
-102.200737,32.413357,-51.000000,-35.000000,-6.000000
-183.241760,32.397522,-55.000000,-35.000000,-10.000000
-282.345520,32.385216,-53.000000,-35.000000,-6.000000
-349.246643,32.377213,-53.000000,-34.000000,-4.000000
-354.531006,32.373932,-55.000000,-35.000000,-12.000000
-312.686035,32.375477,-54.000000,-34.000000,-11.000000
-257.072449,32.381592,-52.000000,-34.000000,-12.000000
-228.249481,32.391544,-54.000000,-35.000000,-12.000000
-194.558472,32.374886,-54.000000,-37.000000,-13.000000
-128.784973,32.362244,-53.000000,-39.000000,-15.000000
-76.121628,32.354523,-54.000000,-39.000000,-15.000000
-55.493774,32.352161,-53.000000,-38.000000,-13.000000
-58.574642,32.355202,-53.000000,-37.000000,-15.000000
-68.455544,32.363316,-53.000000,-37.000000,-16.000000
-53.073788,32.375813,-53.000000,-38.000000,-16.000000
3.701133,32.391544,-47.000000,-38.000000,-15.000000
52.294926,32.379684,-47.000000,-38.000000,-17.000000
52.268101,32.370560,-47.000000,-37.000000,-14.000000
29.404556,32.364876,-51.000000,-38.000000,-17.000000
30.347187,32.362980,-48.000000,-37.000000,-18.000000
69.442818,32.364971,-48.000000,-37.000000,-17.000000
134.879257,32.370705,-47.000000,-39.000000,-22.000000
201.966644,32.379803,-46.000000,-38.000000,-22.000000
248.588791,32.391544,-51.000000,-36.000000,-19.000000
265.434784,32.375584,-53.000000,-37.000000,-22.000000
252.706757,32.362793,-46.000000,-39.000000,-24.000000
224.749680,32.354378,-47.000000,-38.000000,-20.000000
197.287659,32.351120,-54.000000,-37.000000,-21.000000
177.143265,32.353416,-51.000000,-38.000000,-21.000000
165.097244,32.361286,-46.000000,-39.000000,-23.000000
157.520935,32.374306,-47.000000,-35.000000,-18.000000
130.477386,32.391544,-49.000000,-33.000000,-16.000000
60.750969,32.382271,-54.000000,-33.000000,-17.000000
-24.453358,32.376827,-58.000000,-33.000000,-18.000000
-72.566330,32.375824,-58.000000,-37.000000,-17.000000
-76.182106,32.379406,-50.000000,-33.000000,-14.000000
-65.673225,32.387383,-50.000000,-32.000000,-11.000000
-54.591183,32.399288,-52.000000,-31.000000,-6.000000
-41.815586,32.414379,-50.000000,-34.000000,-7.000000
-34.810062,32.431572,-49.000000,-30.000000,-9.000000
-35.676434,32.420197,-55.000000,-31.000000,-5.000000
-32.439503,32.410854,-57.000000,-28.000000,-5.000000
-17.540754,32.404549,-59.000000,-30.000000,-13.000000
3.351623,32.401958,-55.000000,-28.000000,-10.000000
24.223063,32.403465,-54.000000,-29.000000,-12.000000
47.805016,32.409153,-61.000000,-30.000000,-13.000000
75.001358,32.418762,-55.000000,-29.000000,-14.000000
94.316200,32.431572,-53.000000,-28.000000,-14.000000
91.107910,32.417114,-36.000000,-42.000000,-18.000000
63.491913,32.406029,-63.000000,-21.000000,-15.000000
22.955902,32.399204,-64.000000,-28.000000,-22.000000
-16.426497,32.397068,-63.000000,-26.000000,-23.000000
-46.498867,32.399677,-54.000000,-12.000000,-22.000000
-64.696480,32.406757,-49.000000,-24.000000,-25.000000
-70.866920,32.417717,-59.000000,-24.000000,-27.000000
-68.480133,32.431572,-62.000000,-25.000000,-31.000000
-64.091507,32.417637,-59.000000,-26.000000,-32.000000
-62.797726,32.406582,-50.000000,-24.000000,-29.000000
-67.056679,32.399376,-54.000000,-24.000000,-31.000000
-76.035789,32.396645,-59.000000,-26.000000,-33.000000
-88.572632,32.398682,-55.000000,-25.000000,-32.000000
-99.252922,32.405499,-53.000000,-26.000000,-34.000000
-97.233131,32.416733,-54.000000,-26.000000,-31.000000
-76.165886,32.431572,-55.000000,-25.000000,-30.000000
-42.333649,32.419403,-52.000000,-22.000000,-30.000000
-9.837023,32.410831,-47.000000,-22.000000,-27.000000
12.021983,32.406670,-48.000000,-21.000000,-24.000000
23.978395,32.407257,-59.000000,-23.000000,-27.000000
29.458540,32.412571,-57.000000,-24.000000,-29.000000
28.984804,32.422249,-52.000000,-22.000000,-27.000000
26.166973,32.435608,-54.000000,-23.000000,-29.000000
28.211222,32.451584,-56.000000,-23.000000,-27.000000
34.661495,32.439415,-53.000000,-22.000000,-28.000000
31.926386,32.429691,-54.000000,-24.000000,-29.000000
8.538486,32.423328,-52.000000,-25.000000,-26.000000
-35.446510,32.420902,-48.000000,-25.000000,-26.000000
-84.856613,32.422691,-47.000000,-24.000000,-28.000000
-103.592346,32.428696,-47.000000,-24.000000,-29.000000
-68.133278,32.438580,-49.000000,-23.000000,-31.000000
-9.845097,32.451584,-55.000000,-21.000000,-35.000000
16.486130,32.437168,-52.000000,-21.000000,-36.000000
1.585683,32.426033,-55.000000,-20.000000,-37.000000
-25.629185,32.419106,-54.000000,-19.000000,-36.000000
-48.030018,32.416855,-50.000000,-19.000000,-35.000000
-58.535889,32.419384,-51.000000,-20.000000,-35.000000
-43.236557,32.426460,-51.000000,-21.000000,-31.000000
-3.484558,32.437515,-35.000000,-20.000000,-35.000000
34.721302,32.451584,-42.000000,-17.000000,-41.000000
46.722790,32.437996,-40.000000,-24.000000,-48.000000
29.554426,32.427338,-42.000000,-19.000000,-50.000000
-4.380558,32.420536,-41.000000,-20.000000,-51.000000
-39.834839,32.418118,-40.000000,-23.000000,-51.000000
-60.973629,32.420292,-41.000000,-21.000000,-49.000000
-52.356522,32.426968,-41.000000,-18.000000,-48.000000
-10.759282,32.437691,-40.000000,-18.000000,-46.000000
44.400360,32.451584,-39.000000,-19.000000,-45.000000
86.466888,32.438011,-38.000000,-17.000000,-47.000000
104.057457,32.427540,-38.000000,-21.000000,-49.000000
105.766670,32.421028,-43.000000,-20.000000,-49.000000
102.968521,32.418892,-40.000000,-20.000000,-47.000000
96.988113,32.421238,-39.000000,-22.000000,-46.000000
85.626289,32.427864,-38.000000,-19.000000,-45.000000
74.418060,32.438274,-38.000000,-23.000000,-47.000000
71.131439,32.451584,-36.000000,-22.000000,-47.000000
73.219421,32.437233,-33.000000,-22.000000,-48.000000
71.551460,32.425922,-34.000000,-26.000000,-49.000000
64.336258,32.418659,-33.000000,-24.000000,-48.000000
59.177486,32.416050,-33.000000,-25.000000,-46.000000
63.162689,32.418343,-31.000000,-20.000000,-46.000000
77.137764,32.425434,-32.000000,-24.000000,-50.000000
81.923607,32.436836,-32.000000,-24.000000,-50.000000
47.706264,32.451584,-31.000000,-24.000000,-50.000000
-16.417496,32.438934,-30.000000,-25.000000,-49.000000
-56.753674,32.429325,-30.000000,-27.000000,-50.000000
-45.776546,32.423477,-31.000000,-27.000000,-49.000000
-12.015483,32.421700,-28.000000,-26.000000,-50.000000
17.114641,32.423992,-29.000000,-26.000000,-50.000000
42.459820,32.430119,-30.000000,-25.000000,-53.000000
58.052013,32.439587,-29.000000,-27.000000,-54.000000
43.829823,32.451584,-32.000000,-28.000000,-51.000000
-0.959667,32.435650,-29.000000,-26.000000,-52.000000
-48.423046,32.422710,-28.000000,-25.000000,-46.000000
-74.647583,32.414013,-28.000000,-22.000000,-47.000000
-83.429176,32.410423,-30.000000,-26.000000,-48.000000
-90.566978,32.412464,-31.000000,-25.000000,-49.000000
-100.593231,32.420280,-36.000000,-27.000000,-50.000000
-112.182083,32.433594,-34.000000,-26.000000,-51.000000
-114.671494,32.451584,-34.000000,-26.000000,-49.000000
-82.814262,32.443531,-36.000000,-24.000000,-48.000000
-27.491076,32.439873,-37.000000,-26.000000,-50.000000
-8.733003,32.441181,-38.000000,-25.000000,-50.000000
-43.040451,32.447510,-35.000000,-24.000000,-48.000000
-62.774952,32.458523,-36.000000,-25.000000,-48.000000
-22.680546,32.473572,-39.000000,-24.000000,-45.000000
37.995403,32.491703,-38.000000,-23.000000,-44.000000
70.907471,32.511627,-36.000000,-21.000000,-42.000000
69.993576,32.502430,-43.000000,-21.000000,-47.000000
41.966526,32.494633,-40.000000,-24.000000,-46.000000
-6.097625,32.489166,-40.000000,-26.000000,-45.000000
-54.001297,32.486698,-41.000000,-25.000000,-47.000000
-81.870972,32.487663,-39.000000,-27.000000,-44.000000
-95.085121,32.492271,-37.000000,-24.000000,-41.000000
-108.521011,32.500431,-41.000000,-23.000000,-43.000000
-105.324715,32.511627,-40.000000,-24.000000,-44.000000
-57.592976,32.495544,-39.000000,-26.000000,-45.000000
11.278269,32.483093,-40.000000,-24.000000,-46.000000
47.648991,32.475342,-40.000000,-24.000000,-43.000000
41.194221,32.472847,-39.000000,-24.000000,-46.000000
22.157116,32.475716,-40.000000,-21.000000,-45.000000
5.969397,32.483669,-39.000000,-22.000000,-44.000000
-11.404764,32.496017,-39.000000,-22.000000,-46.000000
-27.919769,32.511627,-36.000000,-22.000000,-44.000000
-38.498734,32.499569,-41.000000,-24.000000,-48.000000
-43.684006,32.490292,-41.000000,-24.000000,-45.000000
-42.493931,32.484516,-39.000000,-23.000000,-47.000000
-30.540075,32.482616,-41.000000,-23.000000,-47.000000
-9.929874,32.484684,-39.000000,-23.000000,-42.000000
9.648076,32.490562,-39.000000,-22.000000,-43.000000
21.494854,32.499817,-41.000000,-21.000000,-42.000000
28.645658,32.511627,-42.000000,-21.000000,-42.000000
36.834610,32.495430,-44.000000,-21.000000,-42.000000
46.864113,32.482018,-44.000000,-23.000000,-45.000000
56.024193,32.472435,-45.000000,-25.000000,-46.000000
60.826134,32.467297,-43.000000,-25.000000,-46.000000
56.390320,32.466881,-42.000000,-22.000000,-39.000000
40.129711,32.471134,-39.000000,-22.000000,-38.000000
19.104071,32.479656,-43.000000,-23.000000,-41.000000
6.954454,32.491611,-48.000000,-23.000000,-39.000000
9.220681,32.476372,-46.000000,-22.000000,-40.000000
18.916819,32.464630,-47.000000,-23.000000,-45.000000
29.673426,32.457317,-44.000000,-24.000000,-45.000000
42.536942,32.454914,-42.000000,-24.000000,-41.000000
65.183708,32.457550,-43.000000,-24.000000,-40.000000
99.222321,32.465004,-44.000000,-24.000000,-37.000000
119.365997,32.476700,-43.000000,-23.000000,-37.000000
85.806038,32.491611,-45.000000,-24.000000,-42.000000
6.631463,32.478928,-46.000000,-24.000000,-37.000000
-52.621124,32.469166,-44.000000,-24.000000,-39.000000
-53.670914,32.463097,-44.000000,-24.000000,-43.000000
-27.264120,32.461105,-45.000000,-26.000000,-40.000000
-10.353695,32.463276,-47.000000,-26.000000,-36.000000
-8.815192,32.469440,-44.000000,-24.000000,-35.000000
-12.882006,32.479153,-44.000000,-24.000000,-38.000000
-3.271461,32.491611,-45.000000,-23.000000,-39.000000
25.143730,32.476284,-45.000000,-22.000000,-38.000000
42.634499,32.464050,-45.000000,-22.000000,-39.000000
24.265123,32.456043,-43.000000,-27.000000,-40.000000
-16.696047,32.452984,-42.000000,-28.000000,-39.000000
-57.974548,32.455227,-43.000000,-27.000000,-40.000000
-90.552689,32.462776,-33.000000,-32.000000,-13.000000
-104.267891,32.475208,-45.000000,-26.000000,-37.000000
-93.856865,32.491611,-46.000000,-27.000000,-39.000000
-72.246071,32.481194,-46.000000,-26.000000,-45.000000
-52.551430,32.474449,-44.000000,-26.000000,-38.000000
-26.831614,32.472042,-42.000000,-24.000000,-36.000000
16.681011,32.474194,-40.000000,-24.000000,-37.000000
66.269745,32.480785,-42.000000,-25.000000,-39.000000
96.183830,32.491405,-44.000000,-25.000000,-42.000000
98.651230,32.505363,-42.000000,-25.000000,-40.000000
89.355995,32.521629,-42.000000,-29.000000,-43.000000
85.370003,32.509464,-43.000000,-28.000000,-42.000000
93.583626,32.499577,-42.000000,-22.000000,-37.000000
101.912323,32.492985,-42.000000,-26.000000,-47.000000
78.230499,32.490364,-37.000000,-29.000000,-48.000000
19.150749,32.492058,-40.000000,-25.000000,-43.000000
-30.399496,32.498127,-42.000000,-23.000000,-44.000000
-41.042202,32.508244,-59.000000,-31.000000,-47.000000
-34.996414,32.521629,-51.000000,-23.000000,-46.000000
-35.178402,32.507652,-48.000000,-26.000000,-38.000000
-35.398365,32.496967,-56.000000,-27.000000,-40.000000
-27.323524,32.490421,-40.000000,-27.000000,-22.000000
-16.154064,32.488400,-48.000000,-24.000000,-16.000000
-3.540922,32.490936,-68.000000,-26.000000,-24.000000
9.563226,32.497761,-53.000000,-29.000000,-15.000000
18.123634,32.508305,-49.000000,-31.000000,-1.000000
19.921120,32.521629,-51.000000,-27.000000,-2.000000
20.605961,32.507023,-86.000000,-34.000000,-24.000000
19.204615,32.495323,-72.000000,-31.000000,-8.000000
5.282411,32.487614,-39.000000,-32.000000,14.000000
-23.565138,32.484589,-40.000000,-32.000000,15.000000
-54.587528,32.486637,-45.000000,-34.000000,20.000000
-78.382538,32.493801,-39.000000,-34.000000,31.000000
-117.347214,32.505741,-33.000000,-34.000000,35.000000
-191.273239,32.521629,-33.000000,-36.000000,36.000000
-270.264496,32.510689,-29.000000,-34.000000,39.000000
-285.447662,32.503540,-30.000000,-31.000000,34.000000
-197.903778,32.500900,-29.000000,-30.000000,39.000000
-59.391407,32.503014,-26.000000,-27.000000,50.000000
40.856178,32.509739,-24.000000,-26.000000,50.000000
55.866577,32.520641,-16.000000,-25.000000,55.000000
28.458857,32.534977,-10.000000,-21.000000,63.000000
38.898651,32.551647,-5.000000,-18.000000,61.000000
109.970703,32.539795,2.000000,-17.000000,63.000000
166.213226,32.530144,7.000000,-15.000000,62.000000
152.665970,32.523689,6.000000,-12.000000,60.000000
108.938507,32.521080,33.000000,-4.000000,64.000000
59.664700,32.522690,17.000000,-20.000000,54.000000
1.900755,32.528584,12.000000,-11.000000,63.000000
-47.813759,32.538486,-10.000000,-16.000000,54.000000
-77.458084,32.551647,13.000000,-11.000000,63.000000
-105.227379,32.537411,3.000000,-10.000000,60.000000
-142.908447,32.526524,9.000000,-5.000000,70.000000
-173.581543,32.519859,-4.000000,-7.000000,49.000000
-172.190811,32.517807,4.000000,-11.000000,55.000000
-144.122787,32.520401,6.000000,-10.000000,54.000000
-117.091377,32.527363,4.000000,-8.000000,57.000000
-106.126564,32.538097,3.000000,-10.000000,59.000000
-104.451744,32.551647,9.000000,-16.000000,70.000000
-102.306168,32.537266,21.000000,-14.000000,78.000000
-99.926292,32.525772,28.000000,-9.000000,82.000000
-98.637657,32.518223,28.000000,-10.000000,61.000000
-97.039589,32.515297,27.000000,-7.000000,76.000000
-85.816032,32.517361,7.000000,-12.000000,68.000000
-62.339439,32.524433,12.000000,-12.000000,72.000000
-32.605953,32.536152,0.000000,-19.000000,57.000000
-0.212071,32.551647,-6.000000,-18.000000,44.000000
39.977356,32.540115,-31.000000,-25.000000,23.000000
94.120186,32.532146,-34.000000,-26.000000,17.000000
158.025024,32.528458,-51.000000,-27.000000,-1.000000
217.490479,32.529289,-66.000000,-28.000000,-3.000000
257.319061,32.534550,-42.000000,-26.000000,13.000000
274.691803,32.543858,-55.000000,-27.000000,-1.000000
281.831512,32.556561,-73.000000,-28.000000,3.000000
294.799408,32.571663,-51.000000,-29.000000,16.000000
307.433167,32.558414,-46.000000,-31.000000,6.000000
294.897247,32.547661,-52.000000,-32.000000,-4.000000
257.684967,32.540493,-61.000000,-32.000000,-8.000000
232.602493,32.537643,-48.000000,-31.000000,-3.000000
247.528915,32.539501,-62.000000,-28.000000,-16.000000
283.547028,32.546120,-63.000000,-28.000000,-21.000000
311.187073,32.557133,-46.000000,-30.000000,-21.000000
322.942352,32.571663,-53.000000,-31.000000,-26.000000
321.781616,32.558865,-50.000000,-32.000000,-24.000000
303.253021,32.549294,-49.000000,-33.000000,-24.000000
248.268250,32.543617,-48.000000,-32.000000,-24.000000
147.585846,32.542065,-51.000000,-33.000000,-27.000000
-17.229534,32.544537,-48.000000,-36.000000,-28.000000
-202.250153,32.550713,-50.000000,-36.000000,-27.000000
-307.710297,32.560028,-55.000000,-35.000000,-25.000000
-323.458649,32.571663,-67.000000,-35.000000,-39.000000
-304.891724,32.555038,-52.000000,-35.000000,-24.000000
-278.970612,32.541298,-53.000000,-36.000000,-17.000000
-246.370255,32.531837,-55.000000,-37.000000,-19.000000
-218.756302,32.527691,-41.000000,-39.000000,-5.000000
-200.772049,32.529556,-22.000000,-35.000000,20.000000
-181.065872,32.537727,-52.000000,-38.000000,0.000000
-151.545670,32.552029,-64.000000,-37.000000,-7.000000
-124.408127,32.571663,-50.000000,-34.000000,15.000000
-108.818665,32.565727,-51.000000,-35.000000,15.000000
-98.071335,32.564674,-39.000000,-36.000000,24.000000
-83.424194,32.568909,-43.000000,-37.000000,20.000000
-66.542320,32.578278,-42.000000,-37.000000,20.000000
-54.726402,32.592232,-47.000000,-36.000000,16.000000
-48.126907,32.609913,-48.000000,-35.000000,11.000000
-42.729595,32.630203,-43.000000,-35.000000,13.000000
-35.473904,32.651718,-56.000000,-37.000000,-3.000000
-27.024055,32.643372,-58.000000,-37.000000,-7.000000
-19.168089,32.635872,-50.000000,-36.000000,-15.000000
-6.546160,32.630283,-57.000000,-36.000000,-22.000000
19.764338,32.627441,-61.000000,-36.000000,-23.000000
52.374462,32.627968,-52.000000,-37.000000,-22.000000
70.400978,32.632248,-50.000000,-36.000000,-20.000000
68.644485,32.640316,-53.000000,-35.000000,-21.000000
58.996063,32.651718,-51.000000,-36.000000,-21.000000
42.789093,32.635979,-51.000000,-37.000000,-22.000000
14.972214,32.624050,-51.000000,-37.000000,-20.000000
-12.255891,32.616875,-51.000000,-36.000000,-19.000000
-22.663021,32.614838,-52.000000,-36.000000,-20.000000
-21.283564,32.617889,-52.000000,-36.000000,-19.000000
-19.987442,32.625618,-50.000000,-36.000000,-17.000000
-16.900211,32.637264,-52.000000,-35.000000,-19.000000
-8.789040,32.651718,-53.000000,-35.000000,-20.000000
-0.672830,32.638031,-51.000000,-36.000000,-18.000000
9.035441,32.626987,-52.000000,-35.000000,-18.000000
33.395908,32.619598,-50.000000,-35.000000,-19.000000
76.462723,32.616573,-50.000000,-36.000000,-20.000000
120.479202,32.618336,-53.000000,-36.000000,-20.000000
140.241455,32.625015,-48.000000,-36.000000,-19.000000
123.950615,32.636387,-51.000000,-36.000000,-20.000000
80.136841,32.651718,-53.000000,-36.000000,-20.000000
25.605028,32.640263,-50.000000,-36.000000,-20.000000
-22.245693,32.632763,-50.000000,-36.000000,-20.000000
-44.879272,32.629959,-51.000000,-36.000000,-20.000000
-33.345062,32.632088,-49.000000,-36.000000,-18.000000
-5.847159,32.638985,-50.000000,-35.000000,-19.000000
3.422662,32.650154,-53.000000,-35.000000,-18.000000
-13.335361,32.664787,-48.000000,-36.000000,-18.000000
-32.990135,32.681736,-49.000000,-36.000000,-19.000000
-34.571575,32.670036,-51.000000,-36.000000,-20.000000
-23.431063,32.660450,-49.000000,-36.000000,-21.000000
-14.616981,32.653969,-44.000000,-36.000000,-21.000000
-8.924389,32.651283,-50.000000,-36.000000,-23.000000
-1.214168,32.652794,-55.000000,-36.000000,-26.000000
5.791007,32.658615,-49.000000,-38.000000,-26.000000
7.454633,32.668507,-49.000000,-38.000000,-27.000000
7.769871,32.681736,-52.000000,-36.000000,-29.000000
15.224951,32.667591,-45.000000,-36.000000,-29.000000
31.124056,32.656860,-48.000000,-37.000000,-35.000000
44.098583,32.650375,-46.000000,-37.000000,-34.000000
44.972900,32.648476,-47.000000,-36.000000,-31.000000
38.957626,32.651142,-45.000000,-36.000000,-25.000000
33.037823,32.658047,-54.000000,-36.000000,-27.000000
24.114603,32.668568,-60.000000,-36.000000,-25.000000
9.909565,32.681736,-46.000000,-38.000000,-15.000000
-4.616396,32.666756,-51.000000,-39.000000,-17.000000
-17.239717,32.654587,-44.000000,-40.000000,-14.000000
-31.083073,32.646393,-46.000000,-42.000000,-16.000000
-46.831276,32.642982,-57.000000,-46.000000,-22.000000
-60.546848,32.644859,-44.000000,-42.000000,-16.000000
-69.868568,32.652191,-41.000000,-42.000000,-16.000000
-78.032784,32.664738,-51.000000,-45.000000,-22.000000
-89.275864,32.681736,-43.000000,-44.000000,-16.000000
-100.937889,32.672352,-39.000000,-44.000000,-11.000000
-105.747757,32.667259,-33.000000,-45.000000,-6.000000
-102.030891,32.667107,-46.000000,-44.000000,-7.000000
-95.469536,32.672016,-45.000000,-45.000000,-8.000000
-89.666527,32.681705,-41.000000,-46.000000,-7.000000
-83.049057,32.695564,-42.000000,-47.000000,-8.000000
-75.341354,32.712673,-40.000000,-48.000000,-8.000000
-69.105820,32.731770,-43.000000,-45.000000,-12.000000
-65.405548,32.721767,-41.000000,-48.000000,-9.000000
-63.784649,32.713387,-44.000000,-46.000000,-10.000000
-62.773808,32.707581,-43.000000,-47.000000,-10.000000
-57.540676,32.705021,-45.000000,-47.000000,-9.000000
-43.839417,32.706146,-52.000000,-47.000000,-6.000000
-24.816055,32.711140,-49.000000,-46.000000,-3.000000
-8.446312,32.719875,-44.000000,-46.000000,-3.000000
0.777352,32.731770,-42.000000,-46.000000,-3.000000
6.549553,32.716244,-49.000000,-44.000000,-4.000000
17.553728,32.704292,-50.000000,-45.000000,-6.000000
38.292786,32.696918,-45.000000,-45.000000,-1.000000
64.169250,32.694603,-47.000000,-44.000000,-2.000000
87.569572,32.697418,-43.000000,-45.000000,-9.000000
104.791603,32.705067,-43.000000,-46.000000,-1.000000
114.921249,32.716877,-47.000000,-47.000000,-6.000000
118.223755,32.731770,-47.000000,-47.000000,-7.000000
115.417648,32.718712,-46.000000,-45.000000,-1.000000
104.154602,32.708466,-47.000000,-46.000000,-5.000000
80.930023,32.701900,-46.000000,-45.000000,-4.000000
48.813156,32.699528,-47.000000,-46.000000,-5.000000
13.076735,32.701561,-48.000000,-45.000000,-5.000000
-26.934000,32.707943,-44.000000,-46.000000,-5.000000
-68.329262,32.718285,-45.000000,-45.000000,-5.000000
-99.137917,32.731770,-46.000000,-45.000000,-5.000000
-114.860878,32.717583,-46.000000,-45.000000,-5.000000
-123.493271,32.706619,-45.000000,-45.000000,-6.000000
-127.779572,32.699791,-42.000000,-46.000000,-4.000000
-122.289589,32.697559,-48.000000,-45.000000,-4.000000
-104.769463,32.700031,-49.000000,-45.000000,-6.000000
-75.982140,32.706985,-49.000000,-46.000000,-5.000000
-40.353249,32.717880,-47.000000,-46.000000,-4.000000
-9.744298,32.731770,-43.000000,-44.000000,0.000000
12.078919,32.717762,-43.000000,-46.000000,-1.000000
37.791454,32.706749,-50.000000,-47.000000,-3.000000
70.293015,32.699696,-52.000000,-50.000000,-6.000000
92.063499,32.697166,-47.000000,-46.000000,0.000000
95.233978,32.699394,-39.000000,-46.000000,0.000000
91.510338,32.706291,-50.000000,-45.000000,-7.000000
86.043419,32.717388,-49.000000,-46.000000,-7.000000
71.473549,32.731770,-44.000000,-46.000000,-3.000000
49.911823,32.718498,-41.000000,-45.000000,-2.000000
35.080509,32.708340,-46.000000,-46.000000,-4.000000
33.018566,32.702095,-45.000000,-46.000000,-3.000000
35.731693,32.700127,-46.000000,-46.000000,-3.000000
33.713966,32.702488,-50.000000,-45.000000,-5.000000
26.137350,32.708950,-52.000000,-46.000000,-3.000000
16.607992,32.718998,-64.000000,-49.000000,-14.000000
5.654064,32.731770,-40.000000,-42.000000,-6.000000
-7.564901,32.716469,-26.000000,-40.000000,7.000000
-19.286903,32.704178,-5.000000,-40.000000,24.000000
-24.915449,32.696041,4.000000,-41.000000,35.000000
-25.568350,32.692825,4.000000,-40.000000,46.000000
-24.233318,32.694935,-4.000000,-35.000000,55.000000
-20.612099,32.702446,3.000000,-34.000000,59.000000
-14.793664,32.715008,0.000000,-35.000000,59.000000
-7.817859,32.731770,-4.000000,-34.000000,57.000000
2.755331,32.721771,-2.000000,-32.000000,54.000000
17.668457,32.715755,-1.000000,-32.000000,55.000000
29.880857,32.714394,1.000000,-31.000000,58.000000
34.498810,32.717876,3.000000,-29.000000,57.000000
37.171223,32.726013,2.000000,-28.000000,57.000000
45.119637,32.738304,4.000000,-27.000000,60.000000
56.924332,32.753952,7.000000,-25.000000,59.000000
64.742691,32.771797,8.000000,-25.000000,58.000000
63.041336,32.760773,8.000000,-24.000000,50.000000
55.543434,32.751720,8.000000,-25.000000,45.000000
50.807266,32.745605,7.000000,-24.000000,37.000000
48.571339,32.743076,-3.000000,-25.000000,29.000000
36.254982,32.744503,-27.000000,-19.000000,38.000000
3.660084,32.749992,-44.000000,-16.000000,43.000000
-41.156811,32.759315,-41.000000,-14.000000,51.000000
-75.482307,32.771797,-36.000000,-11.000000,60.000000
-85.931824,32.756714,-40.000000,-9.000000,66.000000
-84.633324,32.745087,-42.000000,-7.000000,62.000000
-87.650444,32.737881,-48.000000,-16.000000,48.000000
-88.277550,32.735577,-50.000000,-16.000000,47.000000
-75.875496,32.738266,-45.000000,-16.000000,65.000000
-61.873856,32.745682,-51.000000,-15.000000,61.000000
-59.094593,32.757202,-54.000000,-16.000000,57.000000
-59.831203,32.771797,-35.000000,-13.000000,57.000000
-56.378712,32.758430,-35.000000,-10.000000,50.000000
-57.214123,32.747955,-26.000000,-8.000000,44.000000
-68.354904,32.741268,-31.000000,-4.000000,37.000000
-81.966171,32.738884,-71.000000,3.000000,22.000000
-83.664886,32.741005,-56.000000,3.000000,36.000000
-65.450386,32.747551,-34.000000,2.000000,41.000000
-40.743427,32.758099,-55.000000,-4.000000,38.000000
-30.038900,32.771797,-63.000000,1.000000,55.000000
-25.015818,32.757751,-47.000000,0.000000,45.000000
3.358544,32.746895,-59.000000,-3.000000,20.000000
59.675629,32.740124,-59.000000,-2.000000,16.000000
120.108238,32.737896,-58.000000,-4.000000,34.000000
163.663803,32.740326,-67.000000,-3.000000,44.000000
179.538849,32.747208,-53.000000,-7.000000,34.000000
167.003555,32.758007,-39.000000,-10.000000,30.000000
144.445251,32.771797,-42.000000,-12.000000,21.000000
136.189743,32.757660,-56.000000,-9.000000,21.000000
145.306702,32.746548,-73.000000,-4.000000,27.000000
152.316345,32.739445,-73.000000,-2.000000,35.000000
139.950714,32.736912,-54.000000,-1.000000,44.000000
109.473732,32.739178,-50.000000,-1.000000,36.000000
74.102570,32.746143,-58.000000,-4.000000,29.000000
41.686214,32.757328,-61.000000,-4.000000,26.000000
5.695282,32.771797,-64.000000,-3.000000,24.000000
-44.017467,32.758553,-56.000000,-5.000000,24.000000
-103.382935,32.748421,-55.000000,-5.000000,25.000000
-152.559235,32.742184,-58.000000,-4.000000,28.000000
-176.840942,32.740215,-59.000000,-5.000000,27.000000
-180.102432,32.742569,-57.000000,-5.000000,23.000000
-172.958405,32.749012,-57.000000,-5.000000,25.000000
-159.124969,32.759041,-58.000000,-5.000000,23.000000
-138.983810,32.771797,-60.000000,-5.000000,23.000000
-116.862839,32.756458,-59.000000,-6.000000,25.000000
-103.308723,32.744141,-60.000000,-6.000000,23.000000
-111.900116,32.735996,-62.000000,-5.000000,23.000000
-137.958420,32.732784,-62.000000,-5.000000,26.000000
-142.432343,32.734909,-57.000000,-5.000000,25.000000
-86.778374,32.742439,-61.000000,-4.000000,24.000000
16.655840,32.755020,-60.000000,-6.000000,32.000000
117.163223,32.771797,-52.000000,-5.000000,35.000000
177.414246,32.761776,-54.000000,-5.000000,15.000000
191.004959,32.755741,-56.000000,-6.000000,7.000000
172.428482,32.754360,-65.000000,-6.000000,-3.000000
149.687607,32.757832,-64.000000,-5.000000,-7.000000
145.610504,32.765968,-69.000000,-6.000000,-11.000000
158.816833,32.778275,-71.000000,-6.000000,-13.000000
172.100159,32.793945,-69.000000,-7.000000,-16.000000
170.008743,32.811825,-67.000000,-7.000000,-11.000000
142.996597,32.800812,-61.000000,-5.000000,-1.000000
93.339561,32.791779,-66.000000,-5.000000,0.000000
41.248142,32.785690,-68.000000,-6.000000,-4.000000
7.638578,32.783176,-60.000000,-6.000000,-6.000000
-8.334414,32.784611,-65.000000,-6.000000,-5.000000
-19.986107,32.790092,-66.000000,-7.000000,-1.000000
-31.800087,32.799385,-65.000000,-7.000000,-3.000000
-45.378796,32.811825,-65.000000,-7.000000,-3.000000
-68.870361,32.796661,-62.000000,-7.000000,-2.000000
-101.061440,32.784958,-68.000000,-6.000000,2.000000
-121.754120,32.777691,-72.000000,-7.000000,5.000000
-113.410423,32.775360,-60.000000,-8.000000,5.000000
-81.868752,32.778053,-64.000000,-7.000000,3.000000
-46.896992,32.785515,-72.000000,-6.000000,7.000000
-22.861015,32.797119,-65.000000,-6.000000,14.000000
-13.897192,32.811825,-64.000000,-9.000000,6.000000
-17.865822,32.798553,-64.000000,-8.000000,4.000000
-28.401522,32.788177,-58.000000,-8.000000,5.000000
-38.132614,32.781567,-56.000000,-9.000000,8.000000
-44.382893,32.779224,-61.000000,-9.000000,14.000000
-49.020874,32.781342,-64.000000,-9.000000,14.000000
-53.904129,32.787830,-67.000000,-9.000000,11.000000
-58.823193,32.798271,-68.000000,-9.000000,11.000000
-62.011059,32.811825,-64.000000,-8.000000,11.000000
-62.325161,32.797588,-67.000000,-9.000000,13.000000
-61.829342,32.786556,-58.000000,-9.000000,14.000000
-64.847397,32.779652,-63.000000,-8.000000,12.000000
-73.515625,32.777359,-71.000000,-10.000000,18.000000
-85.261467,32.779804,-77.000000,-8.000000,19.000000
-94.400230,32.786789,-54.000000,-7.000000,22.000000
-92.185158,32.797779,-55.000000,-9.000000,24.000000
-68.876144,32.811825,-53.000000,-12.000000,24.000000
-22.315638,32.797943,-45.000000,-12.000000,22.000000
36.696739,32.787079,-46.000000,-11.000000,22.000000
92.356430,32.780170,-52.000000,-11.000000,23.000000
134.239151,32.777744,-56.000000,-13.000000,20.000000
157.598038,32.779999,-68.000000,-15.000000,8.000000
160.997253,32.786816,-72.000000,-15.000000,4.000000
148.707047,32.797726,-70.000000,-18.000000,5.000000
130.383087,32.811825,-68.000000,-18.000000,5.000000
114.230324,32.798134,-63.000000,-14.000000,9.000000
102.162216,32.787571,-59.000000,-15.000000,13.000000
93.352776,32.780994,-58.000000,-17.000000,15.000000
88.747375,32.778839,-58.000000,-19.000000,17.000000
88.260139,32.781204,-60.000000,-19.000000,16.000000
86.757942,32.787899,-56.000000,-17.000000,19.000000
77.049515,32.798405,-58.000000,-18.000000,18.000000
56.925552,32.811825,-59.000000,-17.000000,19.000000
30.201590,32.797241,-61.000000,-18.000000,16.000000
0.278961,32.785694,-62.000000,-19.000000,15.000000
-33.211712,32.778221,-62.000000,-19.000000,14.000000
-66.958977,32.775444,-60.000000,-19.000000,16.000000
-89.684853,32.777653,-57.000000,-19.000000,18.000000
-94.845154,32.784805,-57.000000,-20.000000,18.000000
-90.191429,32.796490,-56.000000,-21.000000,14.000000
-86.692459,32.811825,-58.000000,-21.000000,14.000000
-86.083244,32.799820,-59.000000,-20.000000,15.000000
-84.409973,32.791363,-59.000000,-20.000000,15.000000
-79.140846,32.787251,-60.000000,-20.000000,14.000000
-70.360718,32.787823,-61.000000,-20.000000,16.000000
-59.797871,32.793064,-59.000000,-19.000000,16.000000
-50.295624,32.802647,-60.000000,-20.000000,17.000000
-43.033371,32.815918,-60.000000,-20.000000,17.000000
-34.589352,32.831837,-59.000000,-20.000000,15.000000
-22.500391,32.819359,-60.000000,-19.000000,16.000000
-11.720403,32.809410,-60.000000,-20.000000,16.000000
-3.740251,32.802933,-59.000000,-19.000000,16.000000
14.734568,32.800495,-61.000000,-19.000000,16.000000
55.717838,32.802372,-61.000000,-19.000000,15.000000
111.351639,32.808533,-58.000000,-19.000000,17.000000
163.912354,32.818619,-59.000000,-19.000000,17.000000
200.944016,32.831837,-61.000000,-19.000000,14.000000
216.248901,32.817314,-60.000000,-19.000000,16.000000
212.888443,32.806065,-60.000000,-19.000000,17.000000
199.485794,32.799038,-61.000000,-19.000000,15.000000
170.956299,32.796719,-62.000000,-19.000000,15.000000
111.893616,32.799229,-60.000000,-20.000000,16.000000
28.010847,32.806362,-64.000000,-20.000000,14.000000
-50.588837,32.817558,-67.000000,-20.000000,13.000000
-100.605400,32.831837,-63.000000,-20.000000,15.000000
-121.351387,32.818180,-61.000000,-20.000000,18.000000
-124.059868,32.807522,-61.000000,-19.000000,16.000000
-122.062889,32.800766,-61.000000,-22.000000,15.000000
-124.988747,32.798412,-60.000000,-23.000000,13.000000
-133.465912,32.800644,-56.000000,-24.000000,17.000000
-143.881882,32.807335,-56.000000,-24.000000,14.000000
-154.086655,32.818027,-55.000000,-24.000000,13.000000
-160.837845,32.831837,-54.000000,-24.000000,14.000000
-156.623230,32.817814,-50.000000,-24.000000,19.000000
-133.733536,32.806931,-49.000000,-26.000000,21.000000
-91.643661,32.800106,-51.000000,-22.000000,26.000000
-41.323391,32.797817,-60.000000,-21.000000,25.000000
-0.408547,32.800201,-62.000000,-21.000000,25.000000
20.187183,32.807076,-57.000000,-20.000000,31.000000
23.291113,32.817932,-58.000000,-19.000000,34.000000
19.187666,32.831837,-60.000000,-19.000000,33.000000
17.036228,32.817825,-54.000000,-20.000000,35.000000
20.029024,32.806877,-46.000000,-20.000000,39.000000
24.590994,32.799934,-35.000000,-19.000000,37.000000
25.271811,32.797520,-41.000000,-23.000000,28.000000
22.081717,32.799824,-27.000000,-19.000000,32.000000
18.799891,32.806705,-29.000000,-15.000000,34.000000
16.353401,32.817684,-51.000000,-10.000000,40.000000
13.117391,32.831837,-53.000000,-11.000000,46.000000
8.289463,32.818165,-40.000000,-11.000000,58.000000
2.167797,32.807602,-35.000000,-13.000000,62.000000
-4.789665,32.801006,-35.000000,-13.000000,61.000000
-12.202627,32.798832,-37.000000,-12.000000,57.000000
-20.315140,32.801178,-41.000000,-10.000000,52.000000
-29.207037,32.807865,-43.000000,-13.000000,52.000000
-38.139946,32.818382,-43.000000,-12.000000,53.000000
-46.331638,32.831837,-36.000000,-13.000000,57.000000
-54.295937,32.817287,-35.000000,-11.000000,54.000000
-65.376808,32.805790,-43.000000,-8.000000,49.000000
-83.606583,32.798370,-43.000000,-7.000000,52.000000
-105.613434,32.795631,-31.000000,-1.000000,50.000000
-119.763397,32.797855,-28.000000,-1.000000,48.000000
-119.290382,32.804985,-36.000000,0.000000,47.000000
-109.872086,32.816605,-36.000000,-2.000000,48.000000
-100.635979,32.831837,-32.000000,-11.000000,47.000000
-93.490189,32.819691,-30.000000,-17.000000,49.000000
-81.218208,32.811092,-35.000000,-24.000000,48.000000
-53.513706,32.806866,-26.000000,-28.000000,49.000000
-10.617846,32.807377,-22.000000,-33.000000,48.000000
31.613672,32.812626,-27.000000,-38.000000,38.000000
58.332245,32.822292,-32.000000,-43.000000,21.000000
69.587173,32.835720,-37.000000,-45.000000,23.000000
73.220917,32.851852,-39.000000,-43.000000,26.000000
76.056847,32.839592,-43.000000,-39.000000,23.000000
82.201988,32.829861,-60.000000,-26.000000,14.000000
88.805008,32.823563,-77.000000,-20.000000,11.000000
87.166435,32.821228,-70.000000,-16.000000,18.000000
76.297218,32.823097,-75.000000,-15.000000,9.000000
69.583649,32.829128,-82.000000,-8.000000,-2.000000
84.118286,32.838970,-68.000000,-5.000000,1.000000
122.918350,32.851852,-74.000000,-1.000000,-8.000000
167.229599,32.836922,-71.000000,0.000000,-7.000000
190.234756,32.825283,-65.000000,-1.000000,-3.000000
177.752106,32.817940,-66.000000,-2.000000,0.000000
133.389221,32.815449,-72.000000,-6.000000,0.000000
72.189346,32.817974,-68.000000,-5.000000,6.000000
16.152044,32.825329,-66.000000,-6.000000,5.000000
-14.395720,32.836960,-60.000000,-6.000000,5.000000
-14.862042,32.851852,-68.000000,-8.000000,-1.000000
0.370351,32.838875,-71.000000,-9.000000,-3.000000
12.334644,32.828911,-66.000000,-7.000000,2.000000
14.759105,32.822754,-69.000000,-8.000000,0.000000
15.183908,32.820797,-73.000000,-8.000000,1.000000
21.290199,32.823105,-53.000000,-8.000000,9.000000
34.569099,32.829468,-54.000000,-7.000000,8.000000
55.084290,32.839352,-53.000000,-6.000000,10.000000
79.450607,32.851852,-56.000000,-7.000000,8.000000
96.606697,32.835983,-70.000000,-5.000000,-2.000000
99.925682,32.822815,-76.000000,-5.000000,-5.000000
96.952896,32.813358,-56.000000,-6.000000,5.000000
93.535042,32.808224,-58.000000,-6.000000,5.000000
80.410446,32.807701,-69.000000,-6.000000,3.000000
49.512726,32.811775,-69.000000,-6.000000,2.000000
10.719026,32.820084,-62.000000,-4.000000,10.000000
-18.468126,32.831837,-63.000000,-4.000000,12.000000
-30.229561,32.816128,-78.000000,-8.000000,8.000000
-32.113609,32.804035,-77.000000,-7.000000,8.000000
-43.393406,32.796520,-68.000000,-9.000000,24.000000
-80.040649,32.794079,-56.000000,-8.000000,31.000000
-138.322800,32.796829,-52.000000,-6.000000,33.000000
-201.234390,32.804527,-54.000000,-10.000000,28.000000
-256.560455,32.816555,-57.000000,-14.000000,22.000000
-298.128662,32.831837,-61.000000,-24.000000,24.000000
-318.071136,32.819195,-48.000000,-27.000000,31.000000
-308.616913,32.809460,-42.000000,-31.000000,28.000000
-270.087463,32.803394,-49.000000,-30.000000,26.000000
-213.917603,32.801388,-59.000000,-35.000000,17.000000
-152.502136,32.803532,-55.000000,-37.000000,17.000000
-85.758957,32.809669,-47.000000,-35.000000,22.000000
-8.325668,32.819366,-48.000000,-36.000000,18.000000
71.035812,32.831837,-74.000000,-33.000000,4.000000
131.982086,32.816235,-67.000000,-32.000000,9.000000
162.671738,32.803795,-42.000000,-29.000000,14.000000
168.685791,32.795666,-40.000000,-30.000000,12.000000
166.171021,32.792583,-55.000000,-22.000000,-8.000000
170.253098,32.794891,-52.000000,-22.000000,-9.000000
182.399689,32.802578,-56.000000,-16.000000,-14.000000
188.564636,32.815208,-70.000000,-14.000000,-27.000000
176.330124,32.831837,-72.000000,-13.000000,-31.000000
148.939468,32.821331,-70.000000,-11.000000,-27.000000
117.241844,32.814510,-75.000000,-14.000000,-22.000000
86.826317,32.812057,-71.000000,-16.000000,-21.000000
58.654007,32.814186,-56.000000,-17.000000,-14.000000
32.333389,32.820786,-42.000000,-16.000000,4.000000
5.719108,32.831448,-39.000000,-14.000000,15.000000
-19.189678,32.845482,-49.000000,-14.000000,2.000000
-31.541563,32.861858,-67.000000,-13.000000,-12.000000
-23.101589,32.849499,-68.000000,-12.000000,-7.000000
-1.658249,32.839470,-68.000000,-12.000000,-5.000000
15.930028,32.832798,-67.000000,-5.000000,-2.000000
24.092077,32.830154,-63.000000,-4.000000,1.000000
34.023891,32.831890,-68.000000,-33.000000,-8.000000
57.686256,32.838051,-88.000000,-21.000000,-2.000000
94.179497,32.848305,-63.000000,-18.000000,8.000000
131.115234,32.861858,-71.000000,-18.000000,5.000000
150.211258,32.847733,-66.000000,-17.000000,9.000000
138.310760,32.836937,-74.000000,-13.000000,11.000000
100.617897,32.830318,-58.000000,-13.000000,14.000000
52.861843,32.828274,-25.000000,-18.000000,25.000000
-0.277371,32.830833,-62.000000,-27.000000,-8.000000
-63.347084,32.837730,-71.000000,-29.000000,-17.000000
-130.454391,32.848385,-41.000000,-26.000000,-1.000000
-186.421082,32.861858,-47.000000,-22.000000,-3.000000
-224.139679,32.847137,-61.000000,-17.000000,-16.000000
-247.970718,32.835361,-58.000000,-15.000000,-16.000000
-262.143738,32.827614,-60.000000,-20.000000,-29.000000
-262.265442,32.824593,-60.000000,-21.000000,-35.000000
-240.842239,32.826668,-69.000000,-21.000000,-34.000000
-204.585922,32.833885,-73.000000,-17.000000,-34.000000
-175.150696,32.845894,-75.000000,-21.000000,-44.000000
-160.805756,32.861858,-83.000000,-19.000000,-47.000000
-145.183975,32.850716,-62.000000,-27.000000,-8.000000
-114.992126,32.843403,-42.000000,-29.000000,18.000000
-76.280609,32.840649,-12.000000,-31.000000,30.000000
-35.587669,32.842712,-23.000000,-21.000000,8.000000
12.431351,32.849464,-11.000000,-24.000000,18.000000
74.533134,32.860470,-20.000000,-13.000000,2.000000
148.351273,32.874977,-81.000000,-9.000000,-31.000000
215.752090,32.891876,-63.000000,-8.000000,-50.000000
246.907455,32.880001,-86.000000,-12.000000,-65.000000
226.999313,32.870361,-91.000000,-21.000000,-61.000000
172.648712,32.863937,-86.000000,-23.000000,-62.000000
111.498055,32.861366,-59.000000,-22.000000,-43.000000
58.943695,32.862999,-49.000000,-21.000000,-31.000000
21.689875,32.868896,-31.000000,-24.000000,-19.000000
2.588699,32.878769,-28.000000,-25.000000,-18.000000
-5.644289,32.891876,-38.000000,-21.000000,-18.000000
-15.849844,32.877293,-39.000000,-20.000000,-20.000000
-30.969629,32.866108,-53.000000,-18.000000,-27.000000
-41.894131,32.859219,-56.000000,-19.000000,-30.000000
-41.144188,32.857067,-60.000000,-19.000000,-35.000000
-31.487907,32.859699,-60.000000,-19.000000,-36.000000
-17.121691,32.866848,-58.000000,-17.000000,-35.000000
3.498429,32.877903,-59.000000,-17.000000,-34.000000
26.839586,32.891876,-55.000000,-19.000000,-32.000000
39.958893,32.877705,-55.000000,-18.000000,-28.000000
40.589317,32.866444,-59.000000,-16.000000,-29.000000
42.925194,32.859097,-58.000000,-15.000000,-29.000000
51.161503,32.856300,-54.000000,-15.000000,-27.000000
49.427444,32.858372,-55.000000,-15.000000,-26.000000
28.132830,32.865311,-54.000000,-17.000000,-27.000000
-0.427081,32.876755,-64.000000,-18.000000,-35.000000
-20.434238,32.891876,-72.000000,-17.000000,-39.000000
-32.986454,32.879650,-75.000000,-17.000000,-41.000000
-48.769215,32.871059,-44.000000,-14.000000,-20.000000
-66.131973,32.866894,-39.000000,-18.000000,10.000000
-69.565697,32.867496,-27.000000,-19.000000,32.000000
-50.302704,32.872826,-18.000000,-10.000000,36.000000
-17.291090,32.882519,-50.000000,-7.000000,35.000000
5.661090,32.895893,-81.000000,-10.000000,29.000000
-9.172347,32.911888,-66.000000,-10.000000,38.000000
-56.994736,32.899376,-58.000000,-11.000000,48.000000
-84.306633,32.889355,-42.000000,-9.000000,47.000000
-60.869602,32.882786,-47.000000,-7.000000,32.000000
-37.728447,32.880268,-56.000000,-7.000000,25.000000
-63.521416,32.882099,-63.000000,-7.000000,23.000000
-95.152763,32.888287,-62.000000,-6.000000,29.000000
-65.697205,32.898479,-52.000000,-7.000000,36.000000
20.151302,32.911888,-60.000000,-6.000000,24.000000
111.581192,32.897556,-54.000000,-7.000000,18.000000
169.097290,32.886532,-59.000000,-8.000000,14.000000
168.508179,32.879711,-65.000000,-10.000000,7.000000
105.912285,32.877537,-60.000000,-10.000000,13.000000
16.012579,32.880085,-70.000000,-7.000000,0.000000
-49.538155,32.887108,-64.000000,-7.000000,-2.000000
-68.029610,32.898029,-63.000000,-5.000000,-4.000000
-56.766270,32.911888,-78.000000,-6.000000,-12.000000
-40.891243,32.897629,-86.000000,-6.000000,-16.000000
-23.132839,32.886326,-58.000000,-8.000000,-1.000000
8.396717,32.878986,-60.000000,-7.000000,2.000000
52.852924,32.876225,-64.000000,-7.000000,4.000000
90.398209,32.878345,-67.000000,-9.000000,-1.000000
104.859131,32.885326,-61.000000,-7.000000,1.000000
104.480965,32.896786,-59.000000,-5.000000,4.000000
111.577446,32.911888,-58.000000,-2.000000,8.000000
131.410797,32.899601,-80.000000,-4.000000,-1.000000
145.526016,32.890926,-61.000000,-7.000000,2.000000
141.469711,32.886684,-60.000000,-6.000000,1.000000
132.346100,32.887226,-71.000000,-5.000000,-1.000000
138.157669,32.892540,-74.000000,-9.000000,-4.000000
158.480560,32.902271,-62.000000,-6.000000,-4.000000
168.181107,32.915749,-65.000000,-5.000000,-4.000000
138.603333,32.931904,-66.000000,-6.000000,-2.000000
73.058990,32.919571,-60.000000,-4.000000,2.000000
17.355015,32.909744,-68.000000,-7.000000,2.000000
11.932808,32.903343,-63.000000,-7.000000,3.000000
39.832520,32.900928,-64.000000,-5.000000,5.000000
50.363171,32.902771,-64.000000,-4.000000,6.000000
22.597937,32.908848,-61.000000,-5.000000,3.000000
-25.741467,32.918816,-63.000000,-6.000000,-4.000000
-75.808022,32.931904,-71.000000,-7.000000,-7.000000
-121.791229,32.917175,-71.000000,-7.000000,-8.000000
-158.298828,32.905766,-64.000000,-6.000000,-2.000000
-180.074661,32.898624,-63.000000,-6.000000,0.000000
-193.017670,32.896271,-65.000000,-5.000000,1.000000
-207.121155,32.898819,-59.000000,-8.000000,4.000000
-216.768723,32.906059,-63.000000,-5.000000,2.000000
-204.490509,32.917419,-72.000000,-7.000000,-7.000000
-167.395813,32.931904,-63.000000,-8.000000,-2.000000
-120.590393,32.918362,-69.000000,-7.000000,2.000000
-73.964180,32.907803,-66.000000,-5.000000,4.000000
-30.460772,32.901112,-70.000000,-8.000000,-7.000000
-2.156449,32.898781,-68.000000,-9.000000,-11.000000
-0.751902,32.900990,-67.000000,-8.000000,-6.000000
-16.812420,32.907612,-58.000000,-7.000000,1.000000
-29.337938,32.918209,-56.000000,-8.000000,0.000000
-28.512238,32.931904,-57.000000,-10.000000,-2.000000
-15.736449,32.917671,-63.000000,-9.000000,-4.000000
6.885070,32.906612,-64.000000,-9.000000,-3.000000
37.067440,32.899658,-74.000000,-3.000000,5.000000
67.188286,32.897312,-75.000000,-3.000000,7.000000
84.911034,32.899723,-69.000000,-7.000000,11.000000
83.414276,32.906712,-66.000000,-6.000000,16.000000
69.812927,32.917755,-76.000000,-8.000000,8.000000
54.680801,32.931904,-71.000000,-9.000000,5.000000
36.997368,32.918060,-66.000000,-9.000000,1.000000
14.771203,32.907272,-66.000000,-10.000000,1.000000
0.185457,32.900452,-63.000000,-14.000000,4.000000
2.139890,32.898098,-63.000000,-15.000000,1.000000
9.116429,32.900383,-63.000000,-12.000000,11.000000
8.582057,32.907166,-58.000000,-18.000000,12.000000
4.890296,32.917973,-62.000000,-17.000000,13.000000
4.523880,32.931904,-53.000000,-14.000000,23.000000
4.539156,32.917892,-49.000000,-19.000000,21.000000
2.603153,32.907001,-46.000000,-22.000000,17.000000
2.322300,32.900154,-52.000000,-24.000000,18.000000
6.624361,32.897839,-51.000000,-21.000000,21.000000
13.264971,32.900196,-43.000000,-20.000000,32.000000
18.737762,32.907066,-48.000000,-17.000000,37.000000
25.515429,32.917942,-54.000000,-18.000000,33.000000
39.008495,32.931904,-56.000000,-19.000000,29.000000
55.677330,32.917858,-56.000000,-19.000000,32.000000
65.340477,32.906906,-51.000000,-18.000000,38.000000
65.240845,32.899971,-50.000000,-17.000000,36.000000
59.920284,32.897579,-51.000000,-19.000000,32.000000
53.023270,32.899902,-52.000000,-18.000000,28.000000
47.273933,32.906799,-53.000000,-17.000000,30.000000
44.610214,32.917774,-53.000000,-17.000000,28.000000
44.445011,32.931904,-53.000000,-17.000000,31.000000
46.523094,32.918079,-59.000000,-16.000000,30.000000
49.346409,32.907360,-55.000000,-17.000000,27.000000
44.429264,32.900631,-52.000000,-15.000000,25.000000
22.762802,32.898365,-65.000000,-16.000000,22.000000
-13.791094,32.900696,-64.000000,-14.000000,25.000000
-54.842972,32.907459,-63.000000,-15.000000,21.000000
-89.160919,32.918163,-62.000000,-15.000000,23.000000
-105.131027,32.931904,-59.000000,-18.000000,21.000000
-95.134850,32.917625,-57.000000,-19.000000,21.000000
-67.028053,32.906456,-54.000000,-19.000000,27.000000
-42.692562,32.899364,-50.000000,-18.000000,30.000000
-35.999058,32.896896,-51.000000,-17.000000,30.000000
-38.613125,32.899242,-56.000000,-17.000000,23.000000
-36.115013,32.906269,-57.000000,-18.000000,21.000000
-27.152220,32.917473,-53.000000,-17.000000,26.000000
-15.506422,32.931904,-55.000000,-17.000000,26.000000
3.070682,32.918411,-56.000000,-17.000000,28.000000
31.953018,32.908012,-57.000000,-17.000000,27.000000
61.617428,32.901535,-56.000000,-16.000000,26.000000
77.722427,32.899406,-58.000000,-17.000000,32.000000
75.438606,32.901726,-62.000000,-15.000000,32.000000
61.879372,32.908306,-55.000000,-15.000000,32.000000
47.440086,32.918655,-51.000000,-14.000000,32.000000
36.229378,32.931904,-51.000000,-13.000000,32.000000
24.048439,32.917042,-54.000000,-14.000000,29.000000
5.514030,32.905281,-56.000000,-15.000000,31.000000
-17.586138,32.897667,-52.000000,-16.000000,36.000000
-37.494488,32.894852,-53.000000,-16.000000,36.000000
-48.599197,32.897121,-45.000000,-11.000000,50.000000
-51.399971,32.904423,-48.000000,-11.000000,47.000000
-49.587250,32.916317,-60.000000,-13.000000,37.000000
-46.455288,32.931904,-56.000000,-14.000000,35.000000
-43.539845,32.920040,-47.000000,-14.000000,33.000000
-40.590557,32.911709,-46.000000,-15.000000,33.000000
-37.413914,32.907688,-50.000000,-17.000000,33.000000
-34.963436,32.908302,-51.000000,-15.000000,31.000000
-34.804878,32.913525,-48.000000,-16.000000,36.000000
-38.692646,32.923027,-42.000000,-18.000000,33.000000
-47.494007,32.936161,-40.000000,-20.000000,39.000000
-58.171005,32.951916,-54.000000,-21.000000,30.000000
-63.891220,32.939148,-59.000000,-17.000000,33.000000
-59.957848,32.928951,-38.000000,-8.000000,46.000000
-48.450466,32.922302,-29.000000,-9.000000,45.000000
-34.957954,32.919796,-53.000000,-5.000000,45.000000
-22.468283,32.921711,-56.000000,-4.000000,44.000000
-10.383586,32.928028,-51.000000,-8.000000,39.000000
3.270051,32.938370,-48.000000,-4.000000,46.000000
18.874601,32.951916,-40.000000,-3.000000,45.000000
32.411858,32.937637,-44.000000,-4.000000,37.000000
37.673199,32.926640,-55.000000,-8.000000,42.000000
32.667271,32.919823,-52.000000,-8.000000,53.000000
20.645538,32.917625,-42.000000,-8.000000,34.000000
5.276992,32.920143,-61.000000,-5.000000,29.000000
-11.307797,32.927135,-15.000000,-8.000000,57.000000
-26.588320,32.938046,-30.000000,-6.000000,40.000000
-37.301041,32.951916,-71.000000,-2.000000,35.000000
-38.165413,32.937630,-65.000000,0.000000,38.000000
-23.121920,32.926331,-74.000000,-4.000000,5.000000
5.515768,32.919010,-77.000000,-3.000000,15.000000
33.346169,32.916275,-65.000000,-3.000000,14.000000
47.733582,32.918419,-67.000000,-2.000000,5.000000
50.241352,32.925404,-54.000000,-2.000000,15.000000
49.915371,32.936852,-51.000000,-5.000000,19.000000
50.389400,32.951916,-69.000000,-1.000000,20.000000
47.428082,32.939518,-60.000000,-2.000000,17.000000
36.387394,32.930733,-60.000000,0.000000,17.000000
20.530169,32.926399,-64.000000,-1.000000,17.000000
8.056276,32.926891,-59.000000,1.000000,20.000000
1.921033,32.932205,-62.000000,-2.000000,18.000000
-0.934835,32.942005,-62.000000,-1.000000,16.000000
-4.875037,32.955605,-64.000000,1.000000,15.000000
-14.843848,32.971931,-63.000000,0.000000,15.000000
-29.908237,32.959740,-61.000000,-1.000000,18.000000
-37.337299,32.950054,-65.000000,-1.000000,16.000000
-27.071909,32.943771,-61.000000,0.000000,18.000000
-6.332026,32.941425,-60.000000,1.000000,20.000000
12.194045,32.943264,-66.000000,0.000000,12.000000
26.751453,32.949261,-64.000000,0.000000,14.000000
39.405502,32.959068,-62.000000,0.000000,18.000000
45.595924,32.971931,-62.000000,0.000000,17.000000
42.622669,32.956890,-62.000000,0.000000,17.000000
37.871895,32.945175,-63.000000,-1.000000,16.000000
41.167000,32.937794,-60.000000,-1.000000,19.000000
53.966816,32.935299,-61.000000,-1.000000,18.000000
65.136482,32.937859,-66.000000,-1.000000,14.000000
56.165096,32.945271,-64.000000,0.000000,15.000000
15.905293,32.956966,-62.000000,1.000000,17.000000
-57.250946,32.971931,-64.000000,1.000000,14.000000
-161.294281,32.958939,-64.000000,0.000000,14.000000
-270.691254,32.948956,-63.000000,0.000000,16.000000
-334.607422,32.942783,-63.000000,0.000000,16.000000
-330.831757,32.940815,-63.000000,-1.000000,16.000000
-284.031006,32.943123,-62.000000,0.000000,17.000000
-213.272308,32.949490,-62.000000,0.000000,18.000000
-119.789352,32.959396,-62.000000,0.000000,18.000000
-27.985477,32.971931,-63.000000,0.000000,16.000000
24.622522,32.956024,-64.000000,0.000000,15.000000
32.446270,32.942833,-62.000000,0.000000,18.000000
17.332151,32.933369,-62.000000,0.000000,18.000000
-2.104327,32.928238,-63.000000,-1.000000,17.000000
-16.793982,32.927727,-63.000000,-1.000000,17.000000
-20.344038,32.931816,-62.000000,0.000000,18.000000
-10.915827,32.940144,-63.000000,-1.000000,17.000000
4.618908,32.951916,-62.000000,0.000000,18.000000
19.114033,32.936146,-61.000000,0.000000,18.000000
35.164825,32.924004,-63.000000,0.000000,18.000000
56.642426,32.916451,-62.000000,-1.000000,18.000000
78.952309,32.913998,-62.000000,0.000000,18.000000
97.893898,32.916756,-62.000000,0.000000,18.000000
115.077919,32.924484,-62.000000,0.000000,18.000000
128.574432,32.936562,-61.000000,0.000000,19.000000
132.989151,32.951916,-63.000000,0.000000,18.000000
127.283684,32.939270,-62.000000,-1.000000,18.000000
112.758049,32.929546,-61.000000,0.000000,19.000000
91.745285,32.923500,-64.000000,0.000000,17.000000
69.193863,32.921513,-63.000000,0.000000,17.000000
48.569950,32.923672,-61.000000,0.000000,19.000000
32.112816,32.929810,-62.000000,0.000000,18.000000
26.662609,32.939487,-61.000000,0.000000,20.000000
37.597637,32.951916,-61.000000,0.000000,19.000000
58.372299,32.936169,-62.000000,0.000000,19.000000
76.849396,32.923580,-61.000000,0.000000,19.000000
87.113556,32.915318,-62.000000,0.000000,19.000000
88.147957,32.912128,-62.000000,0.000000,19.000000
77.097305,32.914394,-62.000000,0.000000,20.000000
52.452332,32.922127,-63.000000,0.000000,18.000000
20.852238,32.934937,-61.000000,-1.000000,20.000000
-7.495951,32.951916,-60.000000,0.000000,21.000000
-28.598621,32.941895,-63.000000,0.000000,18.000000
-43.601265,32.935814,-62.000000,0.000000,19.000000
-52.144089,32.934368,-62.000000,0.000000,20.000000
-53.504501,32.937767,-62.000000,-1.000000,18.000000
-51.110153,32.945858,-61.000000,0.000000,20.000000
-50.517609,32.958168,-62.000000,0.000000,20.000000
-53.884644,32.973915,-62.000000,0.000000,19.000000
-58.635933,32.991943,-61.000000,0.000000,20.000000
-60.191872,32.980984,-62.000000,-1.000000,20.000000
-53.761078,32.972057,-62.000000,0.000000,19.000000
-37.775131,32.966099,-62.000000,-1.000000,20.000000
-17.281797,32.963699,-61.000000,0.000000,20.000000
0.530203,32.965183,-62.000000,0.000000,19.000000
12.901397,32.970619,-62.000000,0.000000,20.000000
20.348454,32.979759,-60.000000,0.000000,21.000000
23.351618,32.991943,-62.000000,0.000000,20.000000
23.422033,32.976299,-62.000000,0.000000,19.000000
22.543200,32.964127,-62.000000,-2.000000,20.000000
20.840071,32.956478,-62.000000,-1.000000,19.000000
17.733458,32.953930,-62.000000,0.000000,20.000000
12.851517,32.956631,-62.000000,0.000000,19.000000
6.092720,32.964359,-62.000000,0.000000,19.000000
-1.116101,32.976490,-62.000000,-1.000000,20.000000
-6.894965,32.991943,-62.000000,-1.000000,19.000000
-11.534543,32.979393,-62.000000,0.000000,19.000000
-16.338953,32.969780,-62.000000,-1.000000,19.000000
-20.126064,32.963852,-62.000000,-1.000000,19.000000
-19.180937,32.961964,-62.000000,0.000000,19.000000
-11.453748,32.964184,-62.000000,0.000000,19.000000
0.409570,32.970310,-62.000000,-1.000000,19.000000
11.554621,32.979851,-60.000000,1.000000,21.000000
19.594542,32.991943,-62.000000,-1.000000,19.000000
24.385952,32.975555,-61.000000,0.000000,19.000000
25.894981,32.961948,-60.000000,0.000000,24.000000
25.391121,32.952194,-61.000000,0.000000,20.000000
24.915096,32.946945,-62.000000,0.000000,19.000000
23.968365,32.946510,-62.000000,0.000000,20.000000
20.719172,32.950867,-61.000000,-1.000000,20.000000
16.469425,32.959621,-61.000000,-1.000000,21.000000
14.411731,32.971931,-62.000000,0.000000,20.000000
14.339098,32.956688,-62.000000,0.000000,19.000000
13.061509,32.945026,-61.000000,0.000000,21.000000
9.738409,32.937832,-62.000000,-1.000000,20.000000
7.207425,32.935543,-62.000000,-1.000000,20.000000
8.138474,32.938240,-62.000000,0.000000,20.000000
12.869319,32.945671,-62.000000,0.000000,20.000000
19.853148,32.957241,-61.000000,0.000000,20.000000
26.109409,32.971931,-62.000000,-1.000000,19.000000
27.769300,32.958523,-62.000000,0.000000,19.000000
22.889929,32.948078,-62.000000,0.000000,19.000000
14.738587,32.941475,-61.000000,0.000000,20.000000
8.596798,32.939190,-62.000000,0.000000,19.000000
5.222660,32.941387,-62.000000,-1.000000,19.000000
2.243008,32.947945,-62.000000,0.000000,19.000000
-0.233073,32.958408,-62.000000,0.000000,20.000000
-1.284861,32.971931,-61.000000,0.000000,20.000000
-3.362360,32.957443,-62.000000,-1.000000,20.000000
-8.495766,32.946140,-61.000000,0.000000,20.000000
-14.448042,32.938992,-62.000000,0.000000,19.000000
-19.029980,32.936543,-62.000000,0.000000,19.000000
-23.591875,32.938965,-62.000000,0.000000,20.000000
-29.251427,32.946098,-62.000000,0.000000,19.000000
-34.242107,32.957413,-62.000000,-1.000000,19.000000
-37.011021,32.971931,-62.000000,-1.000000,19.000000
-38.631916,32.958454,-62.000000,0.000000,19.000000
-40.857533,32.948021,-62.000000,-1.000000,19.000000
-43.308521,32.941486,-62.000000,0.000000,20.000000
-43.017384,32.939285,-61.000000,0.000000,20.000000
-37.232952,32.941551,-62.000000,0.000000,20.000000
-26.703438,32.948124,-61.000000,-1.000000,20.000000
-15.020143,32.958534,-61.000000,-1.000000,20.000000
-5.065068,32.971931,-61.000000,0.000000,20.000000
1.889468,32.957268,-62.000000,0.000000,20.000000
5.520840,32.945759,-61.000000,0.000000,20.000000
7.211432,32.938427,-62.000000,0.000000,20.000000
8.762722,32.935860,-61.000000,0.000000,20.000000
9.925321,32.938263,-62.000000,0.000000,20.000000
9.813639,32.945503,-61.000000,-1.000000,20.000000
8.786726,32.957058,-62.000000,-1.000000,20.000000
7.436794,32.971931,-61.000000,-1.000000,20.000000
5.981512,32.958881,-62.000000,-1.000000,20.000000
4.805048,32.948887,-62.000000,-1.000000,20.000000
3.993454,32.942722,-62.000000,0.000000,19.000000
2.752762,32.940758,-61.000000,0.000000,20.000000
0.052848,32.943047,-61.000000,0.000000,21.000000
