BVP,TEMP,ACC_x,ACC_y,ACC_z
-0.000274,35.913887,54.000000,-20.000000,20.000000
-0.000366,38.516716,54.000000,-20.000000,22.000000
-0.000680,40.138844,55.000000,-20.000000,23.000000
-0.000620,40.818672,50.000000,-20.000000,22.000000
-0.001491,40.674828,49.000000,-20.000000,22.000000
0.000652,39.888626,49.000000,-19.000000,21.000000
0.008849,38.680393,49.000000,-19.000000,21.000000
-0.029063,37.282684,45.000000,-19.000000,21.000000
-0.053526,35.913887,49.000000,-19.000000,23.000000
0.129399,34.736469,54.000000,-19.000000,24.000000
0.658384,33.894070,51.000000,-16.000000,22.000000
1.366973,33.455685,52.000000,-14.000000,21.000000
2.056166,33.428131,56.000000,-9.000000,21.000000
2.781866,33.762699,61.000000,-3.000000,20.000000
3.792578,34.367958,65.000000,5.000000,12.000000
5.055568,35.126602,68.000000,6.000000,9.000000
6.191866,35.913887,75.000000,13.000000,8.000000
7.146308,36.596237,78.000000,16.000000,5.000000
8.308087,37.099434,71.000000,19.000000,3.000000
10.077060,37.371296,67.000000,21.000000,2.000000
11.865895,37.398731,66.000000,21.000000,2.000000
13.126775,37.205429,64.000000,23.000000,3.000000
14.616403,36.844578,55.000000,22.000000,3.000000
17.881489,36.388042,55.000000,23.000000,5.000000
22.885530,35.913887,51.000000,24.000000,11.000000
27.547089,35.475368,50.000000,25.000000,13.000000
31.655485,35.144623,55.000000,25.000000,12.000000
37.812210,34.958973,51.000000,24.000000,14.000000
48.103725,34.931175,51.000000,27.000000,18.000000
59.802261,35.050022,53.000000,26.000000,13.000000
69.560440,35.284294,54.000000,37.000000,33.000000
79.341301,35.589161,38.000000,35.000000,20.000000
93.768074,35.913887,44.000000,41.000000,25.000000
112.764267,36.190777,64.000000,31.000000,11.000000
129.801254,36.395691,65.000000,24.000000,10.000000
143.691711,36.505962,79.000000,16.000000,11.000000
158.080933,36.515759,59.000000,24.000000,22.000000
178.112778,36.435234,56.000000,24.000000,11.000000
207.235001,36.287270,53.000000,27.000000,13.000000
228.486359,36.102547,57.000000,24.000000,19.000000
208.727463,35.913887,60.000000,20.000000,17.000000
132.891159,35.731949,65.000000,18.000000,14.000000
23.147732,35.594643,58.000000,20.000000,19.000000
-92.478668,35.517471,57.000000,22.000000,21.000000
-205.344376,35.505711,60.000000,18.000000,17.000000
-313.916840,35.554737,55.000000,19.000000,16.000000
-410.112915,35.651733,52.000000,18.000000,20.000000
-486.833527,35.778358,48.000000,21.000000,17.000000
-537.601257,35.913887,64.000000,20.000000,9.000000
-550.365906,36.019451,59.000000,17.000000,15.000000
-514.588318,36.094467,58.000000,18.000000,22.000000
-434.188690,36.131550,56.000000,30.000000,24.000000
-327.252777,36.130367,53.000000,30.000000,28.000000
-212.763748,36.096817,54.000000,19.000000,26.000000
-102.987938,36.041283,55.000000,21.000000,23.000000
-5.864961,35.976254,58.000000,22.000000,17.000000
71.535461,35.913887,58.000000,18.000000,9.000000
125.662209,35.844978,50.000000,22.000000,17.000000
158.887558,35.791294,49.000000,23.000000,16.000000
176.586014,35.757996,58.000000,22.000000,24.000000
182.793457,35.746849,58.000000,23.000000,20.000000
179.710815,35.756489,52.000000,27.000000,27.000000
169.826614,35.783043,52.000000,26.000000,23.000000
156.289505,35.820953,57.000000,26.000000,23.000000
141.404663,35.863853,53.000000,27.000000,23.000000
126.089279,35.886528,55.000000,25.000000,19.000000
110.731628,35.899368,58.000000,25.000000,20.000000
95.820763,35.901894,55.000000,25.000000,21.000000
81.829323,35.895981,56.000000,25.000000,19.000000
68.942833,35.885185,54.000000,24.000000,23.000000
57.230835,35.873798,50.000000,26.000000,24.000000
46.760342,35.865776,56.000000,24.000000,23.000000
37.562061,35.863853,55.000000,23.000000,24.000000
29.585369,35.850025,54.000000,24.000000,24.000000
22.784386,35.839123,53.000000,24.000000,23.000000
17.088903,35.832088,54.000000,23.000000,24.000000
12.456345,35.829483,52.000000,24.000000,22.000000
8.811347,35.831573,53.000000,24.000000,24.000000
6.048705,35.838333,53.000000,24.000000,25.000000
4.030588,35.849373,52.000000,24.000000,25.000000
2.607347,35.863853,52.000000,23.000000,26.000000
1.639649,35.848038,53.000000,25.000000,24.000000
1.002409,35.835861,54.000000,24.000000,23.000000
0.604653,35.828342,56.000000,24.000000,21.000000
0.364895,35.825974,54.000000,21.000000,21.000000
0.231675,35.828831,54.000000,23.000000,20.000000
0.178445,35.836624,56.000000,24.000000,20.000000
0.179905,35.848671,56.000000,21.000000,21.000000
0.219504,35.863853,56.000000,24.000000,19.000000
0.278023,35.848228,56.000000,24.000000,19.000000
0.348520,35.835617,54.000000,24.000000,20.000000
0.460691,35.827034,52.000000,26.000000,18.000000
0.588039,35.823074,55.000000,23.000000,21.000000
0.624530,35.824009,57.000000,24.000000,18.000000
0.540899,35.829800,56.000000,25.000000,18.000000
0.481989,35.840034,58.000000,23.000000,18.000000
0.606280,35.853848,56.000000,24.000000,15.000000
0.829623,35.837486,56.000000,25.000000,17.000000
0.954346,35.824883,53.000000,24.000000,20.000000
0.998107,35.817062,54.000000,24.000000,21.000000
1.214988,35.814537,53.000000,25.000000,23.000000
1.718123,35.817417,54.000000,24.000000,23.000000
2.190771,35.825439,53.000000,23.000000,24.000000
2.407846,35.837952,54.000000,25.000000,22.000000
2.767189,35.853848,52.000000,24.000000,20.000000
3.756728,35.839176,56.000000,23.000000,20.000000
4.959273,35.827732,54.000000,25.000000,18.000000
5.385446,35.820480,52.000000,23.000000,21.000000
5.245212,35.817955,55.000000,21.000000,23.000000
6.054088,35.820343,54.000000,23.000000,23.000000
8.159121,35.827522,53.000000,26.000000,24.000000
9.616048,35.839001,54.000000,27.000000,22.000000
9.123602,35.853848,54.000000,23.000000,20.000000
8.607810,35.838272,56.000000,22.000000,18.000000
10.405874,35.826176,57.000000,23.000000,19.000000
12.535009,35.818581,58.000000,24.000000,20.000000
10.323587,35.816036,52.000000,24.000000,20.000000
2.914207,35.818687,57.000000,23.000000,19.000000
-5.828294,35.826340,55.000000,22.000000,19.000000
-13.788889,35.838406,56.000000,24.000000,16.000000
-23.355421,35.853848,54.000000,24.000000,17.000000
-37.503929,35.838787,55.000000,23.000000,19.000000
-55.692875,35.827065,56.000000,24.000000,19.000000
-67.962822,35.819656,56.000000,26.000000,18.000000
-58.254799,35.817112,56.000000,25.000000,18.000000
-26.591417,35.819607,56.000000,23.000000,19.000000
3.158158,35.826984,57.000000,25.000000,19.000000
12.507278,35.838726,57.000000,23.000000,18.000000
8.886669,35.853848,56.000000,24.000000,19.000000
7.230361,35.838524,55.000000,25.000000,21.000000
11.613798,35.826622,51.000000,26.000000,21.000000
19.086290,35.819141,50.000000,24.000000,25.000000
24.719223,35.816616,54.000000,25.000000,23.000000
23.449400,35.819206,53.000000,24.000000,23.000000
15.136801,35.826721,53.000000,24.000000,21.000000
3.895704,35.838604,55.000000,22.000000,21.000000
-6.172614,35.853848,54.000000,23.000000,21.000000
-11.607328,35.838600,56.000000,22.000000,22.000000
-11.854910,35.826725,53.000000,23.000000,24.000000
-11.047831,35.819229,53.000000,26.000000,22.000000
-13.313745,35.816658,55.000000,24.000000,24.000000
-17.787685,35.819195,54.000000,24.000000,21.000000
-22.162113,35.826679,54.000000,25.000000,22.000000
-27.091496,35.838562,56.000000,23.000000,20.000000
-33.716503,35.853848,55.000000,23.000000,18.000000
-41.030521,35.838699,58.000000,23.000000,18.000000
-47.734013,35.826939,57.000000,22.000000,19.000000
-52.917263,35.819546,54.000000,23.000000,18.000000
-52.231926,35.817047,53.000000,23.000000,18.000000
-41.763680,35.819595,56.000000,24.000000,20.000000
-24.475222,35.827015,53.000000,27.000000,22.000000
-6.705061,35.838764,56.000000,27.000000,21.000000
6.551410,35.853848,55.000000,25.000000,20.000000
15.716628,35.838463,55.000000,23.000000,20.000000
22.643795,35.826462,54.000000,25.000000,21.000000
29.206045,35.818874,53.000000,24.000000,23.000000
38.271042,35.816265,51.000000,25.000000,26.000000
50.123734,35.818821,50.000000,26.000000,27.000000
58.942104,35.826378,53.000000,25.000000,24.000000
58.252857,35.838394,53.000000,24.000000,23.000000
48.602150,35.853848,56.000000,22.000000,21.000000
35.913486,35.838882,56.000000,23.000000,18.000000
23.479769,35.827290,58.000000,19.000000,21.000000
9.251424,35.820023,54.000000,23.000000,22.000000
-9.109592,35.817589,50.000000,27.000000,27.000000
-29.034508,35.820122,51.000000,27.000000,26.000000
-41.272396,35.827438,49.000000,23.000000,26.000000
-36.040699,35.839005,53.000000,24.000000,24.000000
-13.812975,35.853848,50.000000,24.000000,25.000000
12.894659,35.838192,53.000000,24.000000,25.000000
31.772787,35.825928,54.000000,24.000000,22.000000
39.823410,35.818127,57.000000,23.000000,20.000000
38.323093,35.815395,54.000000,23.000000,20.000000
28.117161,35.817955,58.000000,21.000000,20.000000
14.125783,35.825665,53.000000,25.000000,19.000000
4.898813,35.837975,56.000000,23.000000,18.000000
2.561946,35.853848,55.000000,24.000000,17.000000
1.067452,35.839394,55.000000,26.000000,20.000000
-3.293785,35.828331,57.000000,25.000000,21.000000
-8.077581,35.821541,56.000000,23.000000,20.000000
-12.141464,35.819435,54.000000,26.000000,21.000000
-19.036224,35.822060,55.000000,24.000000,21.000000
-31.499271,35.829144,55.000000,24.000000,22.000000
-46.023308,35.840080,54.000000,24.000000,22.000000
-52.976467,35.853848,51.000000,24.000000,24.000000
-43.213696,35.836655,53.000000,24.000000,23.000000
-18.007814,35.822399,53.000000,23.000000,22.000000
10.102561,35.812206,54.000000,22.000000,22.000000
29.621517,35.806763,53.000000,22.000000,21.000000
38.529644,35.806412,56.000000,22.000000,21.000000
38.293957,35.811150,55.000000,23.000000,23.000000
29.573883,35.820583,56.000000,24.000000,25.000000
17.296133,35.833836,51.000000,26.000000,26.000000
8.881328,35.817158,49.000000,26.000000,25.000000
4.983790,35.804405,51.000000,26.000000,24.000000
0.947025,35.796558,53.000000,23.000000,22.000000
-4.234301,35.794094,59.000000,22.000000,22.000000
-8.138883,35.797077,57.000000,23.000000,20.000000
-11.145238,35.805218,56.000000,24.000000,20.000000
-17.210695,35.817844,56.000000,22.000000,20.000000
-29.791254,35.833836,55.000000,22.000000,20.000000
-46.250641,35.819263,53.000000,23.000000,22.000000
-55.054859,35.807888,53.000000,23.000000,23.000000
-44.083130,35.800663,56.000000,22.000000,22.000000
-14.601828,35.798134,57.000000,24.000000,22.000000
18.626781,35.800491,57.000000,24.000000,19.000000
42.382534,35.807621,56.000000,22.000000,17.000000
53.599949,35.819046,50.000000,26.000000,23.000000
53.692825,35.833836,52.000000,27.000000,25.000000
44.718319,35.818218,52.000000,24.000000,27.000000
32.928207,35.806076,52.000000,26.000000,29.000000
26.082687,35.798447,54.000000,25.000000,25.000000
24.961454,35.795879,53.000000,23.000000,23.000000
24.200489,35.798531,53.000000,24.000000,21.000000
20.498373,35.806206,54.000000,24.000000,20.000000
14.555888,35.818321,54.000000,22.000000,21.000000
7.243082,35.833836,51.000000,23.000000,22.000000
-2.083894,35.818871,58.000000,20.000000,23.000000
-14.875402,35.807224,51.000000,27.000000,25.000000
-31.128191,35.799873,52.000000,27.000000,25.000000
-44.860203,35.797352,52.000000,25.000000,24.000000
-45.133461,35.799831,53.000000,25.000000,23.000000
-27.382015,35.807159,52.000000,24.000000,23.000000
-0.840500,35.818813,54.000000,23.000000,22.000000
20.674128,35.833836,57.000000,22.000000,20.000000
31.681877,35.818413,56.000000,22.000000,19.000000
33.823723,35.806412,55.000000,23.000000,19.000000
28.538013,35.798847,57.000000,21.000000,19.000000
17.683500,35.796276,53.000000,23.000000,19.000000
6.761162,35.798866,58.000000,22.000000,19.000000
1.904626,35.806438,55.000000,23.000000,21.000000
4.155552,35.818436,55.000000,25.000000,20.000000
8.589006,35.833836,56.000000,24.000000,23.000000
9.725134,35.818775,55.000000,25.000000,20.000000
6.332891,35.807068,55.000000,25.000000,18.000000
0.340445,35.799690,55.000000,24.000000,20.000000
-6.821126,35.797176,50.000000,24.000000,23.000000
-15.450253,35.799690,55.000000,23.000000,22.000000
-26.222145,35.807068,56.000000,23.000000,23.000000
-37.832417,35.818775,52.000000,24.000000,26.000000
-44.606949,35.833836,55.000000,23.000000,21.000000
-39.358406,35.818436,58.000000,21.000000,20.000000
-21.744619,35.806438,54.000000,21.000000,19.000000
-0.520615,35.798866,57.000000,22.000000,18.000000
14.629028,35.796276,59.000000,20.000000,19.000000
20.778227,35.798847,51.000000,25.000000,22.000000
20.975029,35.806412,49.000000,26.000000,23.000000
19.967041,35.818413,52.000000,24.000000,24.000000
21.431524,35.833836,53.000000,25.000000,23.000000
25.558233,35.818813,56.000000,22.000000,22.000000
29.208376,35.807159,56.000000,23.000000,19.000000
30.093559,35.799831,55.000000,23.000000,19.000000
29.168758,35.797352,57.000000,22.000000,20.000000
27.658226,35.799873,55.000000,22.000000,22.000000
24.219526,35.807224,57.000000,22.000000,20.000000
17.249428,35.818871,58.000000,22.000000,16.000000
8.205044,35.833836,56.000000,23.000000,18.000000
0.214583,35.818321,56.000000,24.000000,20.000000
-5.935799,35.806206,55.000000,25.000000,19.000000
-12.601907,35.798531,55.000000,23.000000,20.000000
-21.113535,35.795879,57.000000,23.000000,21.000000
-27.402178,35.798447,52.000000,23.000000,23.000000
-24.339899,35.806076,53.000000,25.000000,24.000000
-10.101379,35.818218,53.000000,25.000000,24.000000
8.355175,35.833836,52.000000,24.000000,26.000000
22.127045,35.819046,53.000000,21.000000,21.000000
28.031946,35.807621,59.000000,20.000000,20.000000
27.755432,35.800491,58.000000,23.000000,19.000000
23.229286,35.798134,55.000000,22.000000,17.000000
15.837097,35.800663,56.000000,21.000000,22.000000
8.003397,35.807888,54.000000,24.000000,23.000000
2.725872,35.819263,50.000000,25.000000,25.000000
1.155146,35.833836,51.000000,24.000000,26.000000
1.358070,35.817856,52.000000,25.000000,22.000000
0.809651,35.805241,56.000000,21.000000,23.000000
-1.166270,35.797112,54.000000,25.000000,20.000000
-4.266167,35.794136,56.000000,22.000000,20.000000
-8.320910,35.796604,56.000000,23.000000,20.000000
-12.832471,35.804443,55.000000,23.000000,22.000000
-18.121614,35.817181,55.000000,24.000000,23.000000
-25.419409,35.833836,53.000000,24.000000,21.000000
-32.411583,35.820564,58.000000,20.000000,20.000000
-32.383987,35.811115,56.000000,21.000000,20.000000
-21.612284,35.806362,54.000000,26.000000,21.000000
-4.302896,35.806705,54.000000,24.000000,21.000000
12.306634,35.812149,54.000000,24.000000,20.000000
23.434999,35.822353,53.000000,26.000000,21.000000
26.855963,35.836628,51.000000,25.000000,24.000000
23.095783,35.853848,53.000000,24.000000,25.000000
16.351788,35.840122,53.000000,25.000000,25.000000
11.363903,35.829227,52.000000,23.000000,24.000000
9.486157,35.822178,55.000000,23.000000,22.000000
8.768403,35.819572,58.000000,21.000000,20.000000
6.767707,35.821678,56.000000,22.000000,20.000000
2.564453,35.828445,56.000000,23.000000,20.000000
-3.061806,35.839458,55.000000,21.000000,24.000000
-9.351556,35.853848,52.000000,24.000000,23.000000
-17.346561,35.837906,55.000000,22.000000,23.000000
-27.950708,35.825535,52.000000,26.000000,22.000000
-38.033230,35.817776,52.000000,26.000000,22.000000
-40.254330,35.815193,52.000000,25.000000,24.000000
-29.140392,35.817928,54.000000,23.000000,21.000000
-7.575161,35.825768,56.000000,23.000000,22.000000
14.807710,35.838100,54.000000,23.000000,23.000000
29.597088,35.853848,54.000000,23.000000,22.000000
33.641258,35.839123,57.000000,22.000000,22.000000
27.392294,35.827671,55.000000,22.000000,21.000000
14.359346,35.820446,56.000000,22.000000,21.000000
1.678532,35.817963,58.000000,23.000000,19.000000
-4.419550,35.820393,54.000000,25.000000,21.000000
-4.977378,35.827591,56.000000,24.000000,20.000000
-5.815220,35.839058,54.000000,23.000000,21.000000
-8.970125,35.853848,53.000000,27.000000,23.000000
-12.109402,35.838215,53.000000,25.000000,24.000000
-14.591952,35.826027,54.000000,22.000000,23.000000
-18.321161,35.818333,52.000000,24.000000,24.000000
-24.740646,35.815708,51.000000,25.000000,26.000000
-33.795235,35.818333,53.000000,24.000000,25.000000
-41.395493,35.826027,56.000000,23.000000,20.000000
-38.797783,35.838215,56.000000,22.000000,19.000000
-21.731089,35.853848,53.000000,22.000000,18.000000
2.605260,35.839058,56.000000,21.000000,21.000000
23.310892,35.827591,56.000000,23.000000,24.000000
35.966759,35.820393,51.000000,26.000000,25.000000
41.046028,35.817963,50.000000,26.000000,25.000000
38.866207,35.820446,52.000000,25.000000,23.000000
31.220642,35.827671,54.000000,25.000000,21.000000
23.210503,35.839123,56.000000,25.000000,22.000000
18.072142,35.853848,53.000000,25.000000,22.000000
13.636349,35.838100,55.000000,23.000000,23.000000
6.585615,35.825768,54.000000,25.000000,22.000000
-3.627125,35.817928,55.000000,22.000000,22.000000
-15.775374,35.815193,54.000000,22.000000,23.000000
-28.420700,35.817776,55.000000,23.000000,22.000000
-40.749878,35.825535,55.000000,23.000000,22.000000
-53.601833,35.837906,54.000000,25.000000,21.000000
-68.010666,35.853848,51.000000,26.000000,23.000000
-81.444107,35.839458,56.000000,24.000000,21.000000
-86.946884,35.828445,54.000000,25.000000,22.000000
-78.308266,35.821678,50.000000,26.000000,24.000000
-56.583778,35.819572,54.000000,24.000000,23.000000
-29.017508,35.822178,53.000000,25.000000,23.000000
-1.701369,35.829227,51.000000,26.000000,25.000000
22.702213,35.840122,51.000000,24.000000,25.000000
41.908722,35.853848,52.000000,24.000000,23.000000
54.180412,35.836628,54.000000,23.000000,20.000000
60.523457,35.822353,56.000000,22.000000,21.000000
62.707870,35.812149,53.000000,23.000000,22.000000
60.388634,35.806705,55.000000,22.000000,24.000000
53.313522,35.806362,56.000000,24.000000,23.000000
44.422127,35.811115,57.000000,24.000000,21.000000
37.216255,35.820564,54.000000,25.000000,20.000000
31.283749,35.833836,53.000000,25.000000,21.000000
23.858000,35.817181,53.000000,26.000000,23.000000
13.364147,35.804443,52.000000,26.000000,23.000000
0.544464,35.796604,54.000000,24.000000,24.000000
-9.356127,35.794136,57.000000,23.000000,21.000000
-8.427743,35.797112,53.000000,24.000000,22.000000
4.130250,35.805241,54.000000,23.000000,21.000000
18.865784,35.817856,54.000000,23.000000,20.000000
26.848597,35.833836,55.000000,23.000000,21.000000
27.225893,35.819263,55.000000,22.000000,22.000000
22.412268,35.807888,51.000000,27.000000,23.000000
13.787621,35.800663,56.000000,26.000000,22.000000
4.049665,35.798134,55.000000,25.000000,20.000000
-2.567439,35.800491,54.000000,26.000000,21.000000
-5.150345,35.807621,50.000000,25.000000,24.000000
-6.852544,35.819046,51.000000,25.000000,25.000000
-8.920688,35.833836,51.000000,25.000000,27.000000
-9.025802,35.818218,50.000000,26.000000,27.000000
-7.403103,35.806076,53.000000,23.000000,23.000000
-8.997382,35.798447,56.000000,23.000000,21.000000
-17.580996,35.795879,55.000000,22.000000,20.000000
-30.026077,35.798531,55.000000,20.000000,19.000000
-36.712280,35.806206,52.000000,24.000000,23.000000
-29.306559,35.818321,53.000000,24.000000,25.000000
-9.796842,35.833836,58.000000,24.000000,24.000000
11.712852,35.818871,52.000000,26.000000,25.000000
27.319214,35.807224,52.000000,24.000000,21.000000
34.465485,35.799873,53.000000,23.000000,22.000000
32.680317,35.797352,55.000000,24.000000,22.000000
24.485889,35.799831,54.000000,22.000000,24.000000
15.971316,35.807159,55.000000,26.000000,24.000000
11.010287,35.818813,54.000000,25.000000,24.000000
7.636755,35.833836,53.000000,22.000000,24.000000
2.518894,35.818413,55.000000,22.000000,22.000000
-4.548685,35.806412,54.000000,23.000000,21.000000
-12.058212,35.798847,53.000000,21.000000,22.000000
-19.613647,35.796276,54.000000,24.000000,23.000000
-28.448919,35.798866,55.000000,26.000000,23.000000
-39.911667,35.806438,58.000000,24.000000,21.000000
-50.985870,35.818436,57.000000,23.000000,20.000000
-52.352287,35.833836,52.000000,25.000000,22.000000
-36.933208,35.818775,52.000000,25.000000,25.000000
-9.670018,35.807068,52.000000,26.000000,26.000000
17.287954,35.799690,52.000000,26.000000,29.000000
36.018421,35.797176,49.000000,28.000000,27.000000
44.373703,35.799690,53.000000,22.000000,24.000000
42.099216,35.807068,55.000000,23.000000,21.000000
32.042019,35.818775,55.000000,22.000000,18.000000
21.159298,35.833836,55.000000,23.000000,20.000000
14.694499,35.818436,52.000000,22.000000,24.000000
11.314273,35.806438,55.000000,24.000000,25.000000
7.341901,35.798866,59.000000,23.000000,23.000000
2.722085,35.796276,54.000000,23.000000,22.000000
-0.368851,35.798847,50.000000,26.000000,20.000000
-2.346815,35.806412,51.000000,25.000000,21.000000
-6.939305,35.818413,53.000000,25.000000,22.000000
-17.480335,35.833836,54.000000,26.000000,24.000000
-31.175817,35.818813,57.000000,22.000000,25.000000
-37.541580,35.807159,53.000000,24.000000,23.000000
-28.139042,35.799831,57.000000,22.000000,20.000000
-7.548668,35.797352,57.000000,21.000000,21.000000
11.454387,35.799873,53.000000,25.000000,18.000000
22.218172,35.807224,56.000000,23.000000,20.000000
26.215126,35.818871,56.000000,23.000000,18.000000
24.751225,35.833836,56.000000,24.000000,19.000000
18.115164,35.818321,57.000000,26.000000,23.000000
10.239977,35.806206,54.000000,26.000000,22.000000
5.912034,35.798531,55.000000,24.000000,20.000000
5.016778,35.795879,55.000000,26.000000,19.000000
4.508297,35.798447,54.000000,23.000000,21.000000
3.135153,35.806076,54.000000,24.000000,23.000000
1.809488,35.818218,51.000000,26.000000,25.000000
0.779417,35.833836,50.000000,26.000000,27.000000
-2.293936,35.819046,51.000000,25.000000,25.000000
-10.592777,35.807621,54.000000,24.000000,21.000000
-24.113085,35.800491,55.000000,22.000000,19.000000
-36.529205,35.798134,55.000000,24.000000,20.000000
-37.678429,35.800663,55.000000,25.000000,20.000000
-22.920645,35.807888,55.000000,22.000000,24.000000
0.336989,35.819263,53.000000,24.000000,24.000000
20.211035,35.833836,49.000000,28.000000,25.000000
31.882359,35.817844,49.000000,26.000000,26.000000
36.264400,35.805218,52.000000,26.000000,21.000000
33.777145,35.797077,52.000000,25.000000,21.000000
26.077496,35.794094,55.000000,27.000000,22.000000
17.507862,35.796558,53.000000,26.000000,22.000000
10.680702,35.804405,55.000000,24.000000,24.000000
4.649347,35.817158,54.000000,25.000000,23.000000
-1.892550,35.833836,53.000000,25.000000,22.000000
-8.593118,35.820583,55.000000,23.000000,21.000000
-13.903171,35.811150,56.000000,22.000000,19.000000
-16.854904,35.806412,56.000000,22.000000,21.000000
-19.708826,35.806763,52.000000,27.000000,25.000000
-26.740387,35.812206,55.000000,26.000000,25.000000
-38.161674,35.822399,50.000000,27.000000,24.000000
-46.504780,35.836655,51.000000,26.000000,22.000000
-42.325130,35.853848,52.000000,24.000000,22.000000
-24.035360,35.840080,53.000000,24.000000,22.000000
0.509683,35.829144,52.000000,26.000000,23.000000
22.061747,35.822060,52.000000,26.000000,25.000000
35.214581,35.819435,49.000000,28.000000,27.000000
37.782688,35.821541,51.000000,29.000000,25.000000
31.277679,35.828331,56.000000,24.000000,25.000000
21.324751,35.839394,53.000000,23.000000,21.000000
13.371885,35.853848,52.000000,24.000000,22.000000
8.457356,35.837975,55.000000,23.000000,24.000000
4.647483,35.825665,54.000000,23.000000,25.000000
0.829130,35.817955,55.000000,26.000000,23.000000
-2.376757,35.815395,52.000000,23.000000,24.000000
-4.411582,35.818127,51.000000,27.000000,21.000000
-6.638059,35.825928,52.000000,26.000000,23.000000
-11.560193,35.838192,52.000000,27.000000,24.000000
-20.477530,35.853848,52.000000,27.000000,22.000000
-30.691677,35.839020,58.000000,22.000000,22.000000
-34.839497,35.827473,56.000000,24.000000,22.000000
-27.431929,35.820171,52.000000,23.000000,23.000000
-11.983300,35.817650,54.000000,23.000000,23.000000
3.265356,35.820091,52.000000,25.000000,23.000000
14.104826,35.827347,53.000000,25.000000,24.000000
19.530483,35.838917,50.000000,24.000000,24.000000
17.804529,35.853848,58.000000,23.000000,23.000000
10.245897,35.838367,52.000000,27.000000,23.000000
2.530355,35.826324,55.000000,25.000000,22.000000
-2.571604,35.818745,53.000000,24.000000,21.000000
-7.149238,35.816177,52.000000,26.000000,22.000000
-12.019667,35.818787,51.000000,25.000000,25.000000
-15.068343,35.826393,51.000000,27.000000,27.000000
-16.366590,35.838421,51.000000,26.000000,29.000000
-20.059275,35.853848,49.000000,27.000000,29.000000
-29.987020,35.838825,52.000000,25.000000,24.000000
-45.041676,35.827141,56.000000,23.000000,22.000000
-58.546501,35.819771,57.000000,22.000000,19.000000
-62.006382,35.817253,53.000000,23.000000,20.000000
-51.555580,35.819752,53.000000,22.000000,24.000000
-31.493881,35.827110,53.000000,23.000000,25.000000
-10.056371,35.838802,55.000000,26.000000,26.000000
8.067506,35.853848,54.000000,24.000000,27.000000
23.532585,35.838463,52.000000,26.000000,22.000000
38.755299,35.826485,52.000000,26.000000,22.000000
56.332367,35.818928,55.000000,23.000000,21.000000
77.534042,35.816353,53.000000,25.000000,21.000000
96.359245,35.818928,56.000000,24.000000,24.000000
99.851204,35.826485,53.000000,24.000000,23.000000
81.954140,35.838463,52.000000,23.000000,23.000000
52.923504,35.853848,54.000000,23.000000,22.000000
27.553679,35.838802,55.000000,22.000000,21.000000
9.347074,35.827110,57.000000,23.000000,22.000000
-7.019242,35.819752,54.000000,23.000000,22.000000
-24.331255,35.817253,54.000000,25.000000,22.000000
-38.806999,35.819771,54.000000,24.000000,22.000000
-43.260830,35.827141,55.000000,25.000000,21.000000
-33.280514,35.838825,52.000000,25.000000,21.000000
-12.849619,35.853848,52.000000,23.000000,23.000000
7.853988,35.838421,53.000000,25.000000,23.000000
21.019747,35.826393,52.000000,25.000000,26.000000
24.886684,35.818787,54.000000,25.000000,28.000000
20.681541,35.816177,51.000000,25.000000,28.000000
11.531436,35.818745,50.000000,26.000000,27.000000
2.995168,35.826324,52.000000,23.000000,25.000000
-0.973171,35.838367,55.000000,22.000000,23.000000
-2.327880,35.853848,56.000000,22.000000,19.000000
-5.188865,35.838917,55.000000,22.000000,22.000000
-8.855792,35.827347,55.000000,23.000000,23.000000
-9.733236,35.820091,53.000000,23.000000,26.000000
-8.718294,35.817650,53.000000,23.000000,25.000000
-10.344615,35.820171,50.000000,24.000000,25.000000
-16.408115,35.827473,57.000000,24.000000,22.000000
-24.465757,35.839020,55.000000,24.000000,21.000000
-29.048927,35.853848,53.000000,23.000000,21.000000
-23.762764,35.838192,53.000000,25.000000,22.000000
-8.072701,35.825928,55.000000,22.000000,23.000000
9.932079,35.818127,57.000000,22.000000,23.000000
22.291132,35.815395,52.000000,25.000000,25.000000
27.195187,35.817955,52.000000,23.000000,28.000000
25.057655,35.825665,52.000000,24.000000,24.000000
16.779419,35.837975,54.000000,22.000000,24.000000
7.036380,35.853848,57.000000,22.000000,22.000000
1.995040,35.839394,55.000000,24.000000,22.000000
2.512093,35.828331,57.000000,24.000000,21.000000
3.830271,35.821541,52.000000,24.000000,23.000000
2.508818,35.819435,52.000000,26.000000,23.000000
0.059149,35.822060,53.000000,25.000000,24.000000
-1.515068,35.829144,52.000000,23.000000,25.000000
-3.220798,35.840080,52.000000,25.000000,26.000000
-7.057349,35.853848,48.000000,24.000000,28.000000
-14.859632,35.836655,51.000000,27.000000,27.000000
-26.641899,35.822399,51.000000,26.000000,26.000000
-35.653919,35.812206,55.000000,23.000000,23.000000
-31.340599,35.806763,52.000000,24.000000,22.000000
-12.078332,35.806412,55.000000,22.000000,21.000000
11.749236,35.811150,56.000000,23.000000,22.000000
29.975298,35.820583,55.000000,22.000000,26.000000
39.886005,35.833836,54.000000,24.000000,26.000000
41.631454,35.817158,53.000000,24.000000,23.000000
35.929016,35.804405,54.000000,24.000000,24.000000
27.017082,35.796558,51.000000,25.000000,23.000000
20.196016,35.794094,51.000000,25.000000,24.000000
16.067116,35.797077,53.000000,24.000000,25.000000
11.742457,35.805218,53.000000,23.000000,26.000000
5.728893,35.817844,56.000000,23.000000,26.000000
-1.418121,35.833836,56.000000,22.000000,24.000000
-8.688153,35.819263,54.000000,22.000000,23.000000
-15.102880,35.807888,54.000000,22.000000,23.000000
-20.185032,35.800663,53.000000,22.000000,23.000000
-25.022585,35.798134,53.000000,23.000000,23.000000
-32.178635,35.800491,52.000000,23.000000,26.000000
-41.475452,35.807621,54.000000,23.000000,26.000000
-45.522167,35.819046,53.000000,27.000000,24.000000
-35.742962,35.833836,54.000000,24.000000,22.000000
-14.147690,35.818218,56.000000,23.000000,19.000000
8.255680,35.806076,54.000000,25.000000,19.000000
23.780287,35.798447,52.000000,23.000000,24.000000
31.190811,35.795879,51.000000,25.000000,26.000000
30.338245,35.798531,51.000000,26.000000,27.000000
22.036314,35.806206,53.000000,23.000000,26.000000
10.829409,35.818321,51.000000,24.000000,24.000000
1.972758,35.833836,54.000000,24.000000,24.000000
-3.907323,35.818871,57.000000,24.000000,22.000000
-9.477332,35.807224,54.000000,24.000000,23.000000
-14.788034,35.799873,53.000000,25.000000,26.000000
-17.099558,35.797352,54.000000,22.000000,23.000000
-16.340723,35.799831,57.000000,21.000000,22.000000
-16.150412,35.807159,55.000000,23.000000,22.000000
-19.506882,35.818813,54.000000,23.000000,22.000000
-26.441372,35.833836,53.000000,23.000000,22.000000
-33.342644,35.818413,53.000000,24.000000,23.000000
-32.977028,35.806412,53.000000,24.000000,27.000000
-20.478516,35.798847,52.000000,25.000000,26.000000
-0.441878,35.796276,56.000000,22.000000,25.000000
17.154074,35.798866,57.000000,21.000000,23.000000
26.988985,35.806438,54.000000,23.000000,21.000000
29.728100,35.818436,54.000000,22.000000,21.000000
26.797539,35.833836,55.000000,22.000000,21.000000
19.935287,35.818775,51.000000,24.000000,24.000000
13.018577,35.807068,57.000000,22.000000,23.000000
9.078408,35.799690,55.000000,23.000000,21.000000
6.986910,35.797176,55.000000,22.000000,23.000000
3.878004,35.799690,55.000000,24.000000,21.000000
-0.404926,35.807068,51.000000,25.000000,24.000000
-3.772754,35.818775,53.000000,24.000000,25.000000
-6.307005,35.833836,51.000000,27.000000,24.000000
-11.606459,35.818436,52.000000,24.000000,26.000000
-22.030704,35.806438,52.000000,26.000000,24.000000
-33.941330,35.798866,52.000000,23.000000,24.000000
-39.035282,35.796276,54.000000,24.000000,21.000000
-31.462238,35.798847,55.000000,23.000000,20.000000
-13.696424,35.806412,54.000000,23.000000,22.000000
6.096310,35.818413,51.000000,23.000000,24.000000
21.407906,35.833836,56.000000,22.000000,22.000000
29.530762,35.818813,53.000000,25.000000,25.000000
29.571472,35.807159,52.000000,25.000000,25.000000
23.229635,35.799831,51.000000,26.000000,24.000000
15.562736,35.797352,53.000000,24.000000,24.000000
10.945835,35.799873,55.000000,23.000000,23.000000
8.754899,35.807224,55.000000,25.000000,22.000000
5.028127,35.818871,54.000000,22.000000,22.000000
-1.282334,35.833836,56.000000,24.000000,21.000000
-7.174526,35.818321,53.000000,22.000000,22.000000
-11.280747,35.806206,55.000000,23.000000,23.000000
-16.566404,35.798531,52.000000,23.000000,24.000000
-26.085876,35.795879,55.000000,22.000000,25.000000
-38.608051,35.798447,53.000000,25.000000,24.000000
-46.943459,35.806076,55.000000,24.000000,21.000000
-41.465164,35.818218,57.000000,24.000000,21.000000
-20.793100,35.833836,56.000000,24.000000,20.000000
4.754856,35.819046,52.000000,24.000000,22.000000
24.594528,35.807621,53.000000,25.000000,23.000000
36.041775,35.800491,50.000000,23.000000,27.000000
39.185131,35.798134,50.000000,25.000000,28.000000
33.439266,35.800663,48.000000,25.000000,29.000000
22.485125,35.807888,53.000000,22.000000,27.000000
13.706937,35.819263,54.000000,24.000000,22.000000
9.457760,35.833836,54.000000,21.000000,22.000000
5.250235,35.817856,53.000000,24.000000,21.000000
-1.230458,35.805241,51.000000,22.000000,22.000000
-6.113455,35.797112,58.000000,23.000000,22.000000
-6.959157,35.794136,51.000000,24.000000,25.000000
-7.646347,35.796604,50.000000,24.000000,24.000000
-12.789742,35.804443,49.000000,26.000000,24.000000
-22.423399,35.817181,52.000000,25.000000,26.000000
-31.485893,35.833836,49.000000,23.000000,26.000000
-31.449572,35.820564,56.000000,23.000000,27.000000
-17.078291,35.811115,55.000000,23.000000,22.000000
5.930580,35.806362,57.000000,22.000000,19.000000
25.485775,35.806705,54.000000,24.000000,17.000000
35.036480,35.812149,52.000000,21.000000,18.000000
35.369972,35.822353,56.000000,23.000000,23.000000
28.310251,35.836628,53.000000,23.000000,26.000000
16.517519,35.853848,55.000000,26.000000,28.000000
6.100437,35.840122,49.000000,24.000000,27.000000
1.873936,35.829227,53.000000,23.000000,22.000000
1.943061,35.822178,55.000000,24.000000,20.000000
1.346823,35.819572,53.000000,25.000000,22.000000
-0.848138,35.821678,53.000000,25.000000,22.000000
-2.216150,35.828445,55.000000,23.000000,23.000000
-2.666242,35.839458,54.000000,23.000000,26.000000
-5.122225,35.853848,49.000000,26.000000,28.000000
-11.679152,35.837906,50.000000,25.000000,26.000000
-20.989243,35.825535,57.000000,21.000000,20.000000
-27.549103,35.817776,55.000000,20.000000,20.000000
-24.355412,35.815193,53.000000,24.000000,21.000000
-9.804272,35.817928,51.000000,25.000000,24.000000
10.158703,35.825768,54.000000,23.000000,26.000000
27.807102,35.838100,54.000000,22.000000,24.000000
37.967743,35.853848,53.000000,25.000000,24.000000
38.428612,35.839123,54.000000,24.000000,23.000000
31.066463,35.827671,51.000000,23.000000,24.000000
21.395700,35.820446,52.000000,25.000000,23.000000
13.771432,35.817963,54.000000,24.000000,24.000000
8.371215,35.820393,57.000000,24.000000,23.000000
2.827366,35.827591,54.000000,23.000000,23.000000
-4.429198,35.839058,54.000000,22.000000,24.000000
-12.186090,35.853848,53.000000,22.000000,22.000000
-18.774986,35.838215,55.000000,22.000000,22.000000
-25.088085,35.826027,56.000000,24.000000,24.000000
-32.962864,35.818333,53.000000,23.000000,24.000000
-41.464020,35.815708,56.000000,24.000000,23.000000
-45.603790,35.818333,58.000000,23.000000,21.000000
-39.187366,35.826027,55.000000,24.000000,20.000000
-21.333849,35.838215,52.000000,24.000000,21.000000
0.455860,35.853848,50.000000,24.000000,22.000000
17.410303,35.839058,53.000000,24.000000,25.000000
26.619658,35.827591,50.000000,24.000000,26.000000
28.804903,35.820393,51.000000,25.000000,30.000000
25.529875,35.817963,52.000000,24.000000,28.000000
20.046524,35.820446,54.000000,23.000000,24.000000
15.124157,35.827671,54.000000,22.000000,20.000000
10.593430,35.839123,58.000000,19.000000,21.000000
5.618365,35.853848,55.000000,21.000000,22.000000
0.939645,35.838100,55.000000,23.000000,25.000000
-1.906319,35.825768,54.000000,23.000000,26.000000
-2.889963,35.817928,54.000000,23.000000,25.000000
-5.715831,35.815193,54.000000,24.000000,23.000000
-15.207141,35.817776,51.000000,23.000000,24.000000
-29.213627,35.825535,51.000000,23.000000,25.000000
-36.106030,35.837906,56.000000,24.000000,25.000000
-26.074778,35.853848,55.000000,23.000000,25.000000
-3.469108,35.839447,55.000000,23.000000,22.000000
18.030233,35.828423,54.000000,23.000000,23.000000
30.188856,35.821644,54.000000,22.000000,23.000000
33.712807,35.819530,53.000000,24.000000,23.000000
30.602503,35.822132,57.000000,20.000000,22.000000
22.392132,35.829189,55.000000,23.000000,24.000000
13.111709,35.840099,56.000000,23.000000,23.000000
6.492352,35.853848,55.000000,22.000000,23.000000
1.972096,35.836643,57.000000,25.000000,20.000000
-2.771533,35.822388,54.000000,24.000000,20.000000
-7.216650,35.812199,53.000000,24.000000,25.000000
-9.021304,35.806763,50.000000,26.000000,26.000000
-8.844334,35.806419,48.000000,27.000000,29.000000
-10.574120,35.811161,48.000000,24.000000,28.000000
-17.270744,35.820591,55.000000,21.000000,24.000000
-27.697704,35.833836,59.000000,20.000000,18.000000
-34.409023,35.817139,60.000000,21.000000,17.000000
-27.877121,35.804363,54.000000,21.000000,23.000000
-7.437025,35.796486,53.000000,22.000000,26.000000
16.321358,35.793999,52.000000,24.000000,25.000000
33.611465,35.796974,54.000000,22.000000,26.000000
42.641804,35.805130,53.000000,24.000000,23.000000
44.234478,35.817787,52.000000,24.000000,23.000000
38.789528,35.833836,50.000000,25.000000,24.000000
29.692469,35.819328,53.000000,23.000000,21.000000
22.467953,35.808014,57.000000,24.000000,21.000000
18.719200,35.800842,56.000000,23.000000,22.000000
14.900167,35.798336,53.000000,23.000000,24.000000
8.308004,35.800690,53.000000,23.000000,23.000000
0.590827,35.807785,55.000000,22.000000,20.000000
-6.151550,35.819138,58.000000,20.000000,19.000000
-12.839945,35.833836,56.000000,20.000000,21.000000
-21.829079,35.818127,54.000000,25.000000,23.000000
-34.214886,35.805901,55.000000,22.000000,23.000000
-47.120594,35.798206,57.000000,22.000000,21.000000
-51.896881,35.795609,54.000000,25.000000,21.000000
-40.468468,35.798271,53.000000,25.000000,22.000000
-15.552491,35.805996,52.000000,24.000000,24.000000
10.683943,35.818203,53.000000,24.000000,25.000000
28.544260,35.833836,52.000000,24.000000,27.000000
36.130127,35.819004,50.000000,24.000000,28.000000
34.846268,35.807487,59.000000,20.000000,20.000000
27.373877,35.800236,55.000000,19.000000,20.000000
18.726988,35.797764,55.000000,23.000000,19.000000
12.973931,35.800228,55.000000,23.000000,20.000000
9.453249,35.807476,55.000000,22.000000,25.000000
5.359899,35.818996,52.000000,24.000000,27.000000
0.564883,35.833836,54.000000,23.000000,26.000000
-2.670583,35.818222,54.000000,22.000000,20.000000
-3.861388,35.806042,55.000000,21.000000,19.000000
-5.524379,35.798344,55.000000,25.000000,20.000000
-9.943545,35.795704,53.000000,24.000000,22.000000
-17.514591,35.798309,54.000000,23.000000,25.000000
-26.699104,35.805992,53.000000,23.000000,26.000000
-31.880899,35.818180,55.000000,22.000000,24.000000
-25.982603,35.833836,54.000000,22.000000,22.000000
-10.294764,35.819073,55.000000,20.000000,21.000000
5.434087,35.807655,55.000000,21.000000,22.000000
14.903640,35.800514,59.000000,22.000000,21.000000
18.241182,35.798134,55.000000,23.000000,22.000000
15.412734,35.800640,52.000000,24.000000,22.000000
7.263558,35.807854,55.000000,25.000000,23.000000
-0.604753,35.819237,52.000000,24.000000,25.000000
-3.469172,35.833836,52.000000,24.000000,25.000000
-3.499417,35.817883,49.000000,25.000000,29.000000
-5.005709,35.805305,51.000000,26.000000,28.000000
-7.371501,35.797215,55.000000,22.000000,26.000000
-7.472811,35.794270,55.000000,20.000000,22.000000
-6.117831,35.796745,55.000000,23.000000,19.000000
-7.796622,35.804569,53.000000,22.000000,19.000000
-15.606569,35.817257,58.000000,19.000000,26.000000
-28.351849,35.833836,56.000000,22.000000,25.000000
-39.290550,35.820457,53.000000,24.000000,28.000000
-38.525311,35.810898,50.000000,25.000000,27.000000
-22.394526,35.806061,51.000000,24.000000,23.000000
1.329347,35.806355,52.000000,24.000000,23.000000
21.431808,35.811802,51.000000,26.000000,25.000000
32.296829,35.822071,52.000000,25.000000,24.000000
33.134445,35.836464,53.000000,24.000000,24.000000
25.528030,35.853848,54.000000,23.000000,25.000000
14.775367,35.840290,53.000000,24.000000,24.000000
6.726338,35.829556,55.000000,21.000000,23.000000
1.404867,35.822636,54.000000,22.000000,22.000000
-5.210117,35.820103,56.000000,20.000000,25.000000
-13.282367,35.822201,53.000000,24.000000,26.000000
-18.561676,35.828869,56.000000,25.000000,22.000000
-19.773304,35.839703,57.000000,21.000000,25.000000
-21.403027,35.853848,52.000000,26.000000,25.000000
-28.349676,35.837608,49.000000,25.000000,28.000000
-39.389530,35.824947,49.000000,26.000000,27.000000
-45.265514,35.816956,49.000000,25.000000,27.000000
-35.423260,35.814236,50.000000,25.000000,29.000000
-9.823433,35.816978,54.000000,23.000000,26.000000
19.059210,35.824978,60.000000,20.000000,20.000000
38.783092,35.837635,58.000000,21.000000,18.000000
46.580509,35.853848,54.000000,21.000000,22.000000
44.868019,35.839680,53.000000,23.000000,25.000000
35.576668,35.828808,55.000000,24.000000,27.000000
22.857311,35.822098,54.000000,24.000000,27.000000
13.235229,35.819969,52.000000,25.000000,25.000000
8.748195,35.822495,50.000000,24.000000,25.000000
6.015215,35.829433,52.000000,24.000000,23.000000
3.141228,35.840214,51.000000,24.000000,24.000000
1.442923,35.853848,58.000000,24.000000,24.000000
0.635548,35.836571,56.000000,24.000000,23.000000
-2.172126,35.822285,53.000000,22.000000,26.000000
-9.319942,35.812103,55.000000,23.000000,25.000000
-20.716919,35.806705,56.000000,21.000000,22.000000
-32.323441,35.806408,55.000000,22.000000,23.000000
-35.989918,35.811180,53.000000,22.000000,23.000000
-25.997782,35.820621,54.000000,24.000000,24.000000
-6.204979,35.833836,56.000000,23.000000,21.000000
13.142305,35.817089,57.000000,22.000000,21.000000
25.251471,35.804237,50.000000,27.000000,23.000000
29.403051,35.796288,52.000000,24.000000,27.000000
26.769772,35.793739,51.000000,25.000000,27.000000
20.163721,35.796692,51.000000,25.000000,28.000000
14.956167,35.804878,52.000000,26.000000,29.000000
14.221614,35.817635,53.000000,20.000000,22.000000
15.097514,35.833836,60.000000,21.000000,21.000000
13.407818,35.819534,56.000000,22.000000,17.000000
9.090871,35.808441,54.000000,20.000000,21.000000
4.617105,35.801464,54.000000,24.000000,25.000000
0.574724,35.799088,54.000000,25.000000,26.000000
-5.217465,35.801464,53.000000,23.000000,30.000000
-15.381204,35.808441,49.000000,27.000000,27.000000
-28.689293,35.819534,53.000000,21.000000,23.000000
-36.804043,35.833836,54.000000,24.000000,21.000000
-29.321281,35.817635,54.000000,22.000000,20.000000
-6.078205,35.804878,56.000000,21.000000,21.000000
20.362848,35.796692,54.000000,23.000000,25.000000
37.679070,35.793739,52.000000,23.000000,26.000000
43.048454,35.796288,55.000000,22.000000,26.000000
38.551777,35.804237,54.000000,22.000000,25.000000
26.350277,35.817089,54.000000,22.000000,22.000000
10.984217,35.833836,56.000000,20.000000,22.000000
-1.634195,35.820621,53.000000,25.000000,21.000000
-9.363707,35.811180,54.000000,21.000000,21.000000
-14.028046,35.806408,57.000000,24.000000,22.000000
-16.898996,35.806705,54.000000,25.000000,22.000000
-17.260889,35.812103,53.000000,24.000000,24.000000
-15.058386,35.822285,52.000000,24.000000,25.000000
-13.117648,35.836571,52.000000,25.000000,27.000000
-15.283196,35.853848,50.000000,26.000000,28.000000
-22.733250,35.840214,50.000000,24.000000,28.000000
-31.732714,35.829433,53.000000,23.000000,26.000000
-34.401249,35.822495,57.000000,21.000000,19.000000
-24.368788,35.819969,57.000000,20.000000,20.000000
-4.499082,35.822098,52.000000,22.000000,23.000000
14.562535,35.828808,52.000000,23.000000,28.000000
25.929394,35.839680,54.000000,23.000000,27.000000
30.594454,35.853848,54.000000,21.000000,27.000000
30.067883,35.837635,54.000000,23.000000,25.000000
24.195879,35.824978,51.000000,25.000000,22.000000
16.586679,35.816978,54.000000,24.000000,23.000000
12.348406,35.814236,53.000000,24.000000,23.000000
10.814977,35.816956,52.000000,24.000000,25.000000
7.696388,35.824947,52.000000,23.000000,25.000000
2.343975,35.837608,55.000000,22.000000,24.000000
-2.883838,35.853848,54.000000,21.000000,23.000000
-8.142397,35.839714,55.000000,22.000000,24.000000
-16.367022,35.828892,58.000000,23.000000,23.000000
-28.699144,35.822235,57.000000,22.000000,22.000000
-41.968712,35.820145,53.000000,23.000000,22.000000
-50.085716,35.822681,55.000000,22.000000,24.000000
-46.831753,35.829594,55.000000,24.000000,23.000000
-29.601229,35.840313,53.000000,23.000000,23.000000
-3.934273,35.853848,52.000000,24.000000,25.000000
18.713875,35.836445,52.000000,25.000000,25.000000
30.977356,35.822033,53.000000,23.000000,26.000000
33.241531,35.811752,52.000000,24.000000,26.000000
28.123703,35.806297,49.000000,25.000000,30.000000
18.706194,35.806004,53.000000,24.000000,27.000000
10.343028,35.810852,56.000000,19.000000,22.000000
6.126607,35.820431,58.000000,22.000000,20.000000
3.501037,35.833836,53.000000,22.000000,22.000000
-0.474787,35.817295,52.000000,23.000000,25.000000
-4.520513,35.804653,56.000000,21.000000,25.000000
-6.265317,35.796864,56.000000,21.000000,26.000000
-6.636358,35.794407,53.000000,23.000000,24.000000
-9.346950,35.797352,51.000000,24.000000,25.000000
-17.029320,35.805420,49.000000,24.000000,26.000000
-27.190077,35.817947,50.000000,25.000000,28.000000
-31.289707,35.833836,53.000000,21.000000,24.000000
-21.462206,35.819172,57.000000,23.000000,23.000000
-0.362004,35.807724,57.000000,22.000000,22.000000
20.200901,35.800465,51.000000,22.000000,23.000000
31.608685,35.797928,53.000000,22.000000,22.000000
33.301792,35.800312,52.000000,21.000000,23.000000
27.016703,35.807491,53.000000,22.000000,24.000000
15.150496,35.818981,52.000000,25.000000,25.000000
3.726332,35.833836,56.000000,22.000000,23.000000
-1.567579,35.818306,57.000000,25.000000,21.000000
-1.782640,35.806236,56.000000,25.000000,21.000000
-1.686307,35.798653,50.000000,25.000000,23.000000
-2.206742,35.796101,52.000000,25.000000,24.000000
-1.003276,35.798737,50.000000,24.000000,26.000000
0.994975,35.806362,47.000000,25.000000,29.000000
-0.254859,35.818409,48.000000,27.000000,31.000000
-6.937803,35.833836,55.000000,21.000000,27.000000
-18.332333,35.818806,57.000000,22.000000,21.000000
-29.416306,35.807106,57.000000,19.000000,21.000000
-30.208761,35.799717,54.000000,23.000000,21.000000
-15.580874,35.797176,54.000000,22.000000,22.000000
6.292711,35.799667,50.000000,25.000000,25.000000
23.425737,35.807030,54.000000,24.000000,23.000000
32.797245,35.818745,53.000000,24.000000,24.000000
36.605335,35.833836,53.000000,24.000000,23.000000
34.617313,35.818520,53.000000,22.000000,26.000000
27.493511,35.806614,54.000000,23.000000,25.000000
19.935200,35.799126,55.000000,20.000000,24.000000
15.324689,35.796593,55.000000,20.000000,23.000000
11.969700,35.799175,53.000000,23.000000,24.000000
6.674287,35.806690,54.000000,22.000000,23.000000
-0.960261,35.818581,55.000000,23.000000,24.000000
-8.467647,35.833836,53.000000,22.000000,23.000000
-13.608659,35.818642,50.000000,23.000000,26.000000
-17.247845,35.806808,54.000000,23.000000,24.000000
-22.227266,35.799332,57.000000,22.000000,19.000000
-29.462217,35.796768,58.000000,22.000000,19.000000
-36.525120,35.799290,56.000000,22.000000,20.000000
-37.643391,35.806744,51.000000,24.000000,25.000000
-26.446930,35.818588,52.000000,24.000000,26.000000
-4.242855,35.833836,51.000000,23.000000,30.000000
17.850315,35.818653,49.000000,24.000000,31.000000
30.274031,35.806862,52.000000,22.000000,26.000000
33.251812,35.799450,56.000000,21.000000,24.000000
30.715090,35.796944,58.000000,17.000000,19.000000
23.895462,35.799500,61.000000,18.000000,22.000000
14.175068,35.806938,48.000000,25.000000,24.000000
5.533920,35.818714,56.000000,24.000000,24.000000
0.547545,35.833836,49.000000,24.000000,24.000000
-2.253577,35.818489,51.000000,24.000000,25.000000
-4.714650,35.806522,49.000000,25.000000,27.000000
-5.853205,35.798958,51.000000,23.000000,27.000000
-5.005490,35.796360,53.000000,22.000000,25.000000
-5.156661,35.798908,55.000000,20.000000,23.000000
-10.359289,35.806446,54.000000,24.000000,24.000000
-21.449263,35.818424,54.000000,26.000000,24.000000
-34.238125,35.833836,55.000000,20.000000,23.000000
-40.429371,35.818825,57.000000,20.000000,21.000000
-33.663986,35.807190,53.000000,21.000000,22.000000
-16.635004,35.799889,54.000000,20.000000,24.000000
1.482887,35.797436,53.000000,23.000000,26.000000
14.592854,35.799973,52.000000,23.000000,27.000000
21.715122,35.807316,51.000000,25.000000,23.000000
22.217529,35.818928,52.000000,23.000000,20.000000
16.164516,35.833836,57.000000,25.000000,21.000000
7.832722,35.818253,52.000000,24.000000,24.000000
2.816675,35.806061,51.000000,23.000000,29.000000
1.581286,35.798313,53.000000,25.000000,29.000000
0.271467,35.795609,50.000000,23.000000,29.000000
-2.683053,35.798161,54.000000,24.000000,26.000000
-5.531583,35.805828,57.000000,20.000000,20.000000
-7.909910,35.818062,53.000000,22.000000,18.000000
-12.405087,35.833836,58.000000,19.000000,19.000000
-21.189608,35.819275,56.000000,22.000000,25.000000
-31.986320,35.808109,51.000000,24.000000,27.000000
-37.211597,35.801239,53.000000,23.000000,27.000000
-29.788128,35.799088,54.000000,23.000000,24.000000
-11.237151,35.801716,52.000000,23.000000,21.000000
9.593156,35.808861,54.000000,25.000000,20.000000
25.403900,35.819912,52.000000,25.000000,23.000000
33.589195,35.833836,50.000000,25.000000,26.000000
33.590725,35.816822,55.000000,24.000000,26.000000
26.470009,35.802738,55.000000,22.000000,24.000000
16.020132,35.792671,53.000000,22.000000,21.000000
7.221472,35.787296,57.000000,20.000000,19.000000
2.601240,35.786930,56.000000,21.000000,18.000000
0.602848,35.791565,55.000000,21.000000,22.000000
-1.342539,35.800816,57.000000,25.000000,22.000000
-2.852468,35.813820,53.000000,21.000000,25.000000
-2.837287,35.796879,53.000000,24.000000,22.000000
-4.317692,35.783875,55.000000,24.000000,24.000000
-11.803099,35.775826,53.000000,26.000000,25.000000
-24.018244,35.773254,51.000000,25.000000,24.000000
-33.080353,35.776253,52.000000,23.000000,26.000000
-30.681122,35.784546,51.000000,24.000000,28.000000
-15.279406,35.797451,50.000000,24.000000,25.000000
6.103619,35.813820,55.000000,23.000000,25.000000
24.054873,35.799686,54.000000,21.000000,20.000000
32.862926,35.788734,56.000000,19.000000,21.000000
30.850033,35.781849,53.000000,23.000000,26.000000
20.254890,35.779503,52.000000,24.000000,28.000000
8.128672,35.781849,54.000000,23.000000,27.000000
1.988568,35.788734,55.000000,22.000000,26.000000
2.738112,35.799686,52.000000,25.000000,23.000000
4.792215,35.813820,47.000000,25.000000,26.000000
3.580891,35.797462,53.000000,26.000000,26.000000
0.263119,35.784569,53.000000,23.000000,24.000000
-2.613017,35.776287,54.000000,22.000000,26.000000
-7.066864,35.773296,55.000000,23.000000,25.000000
-17.197218,35.775871,54.000000,21.000000,24.000000
-33.335438,35.783913,57.000000,21.000000,22.000000
-50.859779,35.796902,55.000000,22.000000,22.000000
-61.304951,35.813820,53.000000,23.000000,26.000000
-57.203545,35.800797,49.000000,28.000000,27.000000
-41.095371,35.791531,53.000000,21.000000,24.000000
-24.658451,35.786880,54.000000,23.000000,23.000000
-16.205000,35.787239,52.000000,27.000000,25.000000
-16.305656,35.792614,51.000000,23.000000,26.000000
-23.517124,35.802689,52.000000,24.000000,26.000000
-34.294121,35.816792,51.000000,25.000000,27.000000
-40.887611,35.833836,47.000000,24.000000,30.000000
-37.699165,35.819954,54.000000,24.000000,25.000000
-26.489136,35.808945,56.000000,19.000000,22.000000
-12.024134,35.801834,60.000000,21.000000,20.000000
3.039059,35.799225,53.000000,22.000000,22.000000
17.178801,35.801376,53.000000,23.000000,26.000000
27.657078,35.808224,53.000000,25.000000,26.000000
31.871325,35.819340,59.000000,23.000000,24.000000
28.972029,35.833836,55.000000,20.000000,23.000000
21.256702,35.817993,54.000000,21.000000,23.000000
16.687971,35.805698,53.000000,22.000000,24.000000
24.172159,35.797981,53.000000,20.000000,25.000000
42.181282,35.795403,52.000000,25.000000,25.000000
59.376129,35.798111,53.000000,23.000000,28.000000
67.815887,35.805897,51.000000,25.000000,26.000000
66.981216,35.818161,52.000000,23.000000,24.000000
57.318153,35.833836,58.000000,18.000000,24.000000
40.526772,35.819042,52.000000,22.000000,22.000000
23.540136,35.807537,56.000000,23.000000,24.000000
13.155115,35.800282,58.000000,22.000000,22.000000
8.580698,35.797791,54.000000,22.000000,22.000000
5.101800,35.800240,54.000000,24.000000,23.000000
1.596593,35.807472,54.000000,25.000000,25.000000
-0.401306,35.818985,51.000000,24.000000,27.000000
-1.596153,35.833836,52.000000,25.000000,27.000000
-4.885957,35.818253,54.000000,23.000000,27.000000
-12.039724,35.806110,49.000000,24.000000,28.000000
-20.624983,35.798447,53.000000,21.000000,23.000000
-23.632902,35.795834,58.000000,19.000000,22.000000
-15.842421,35.798447,57.000000,21.000000,19.000000
-0.551852,35.806110,56.000000,24.000000,21.000000
14.008121,35.818253,56.000000,21.000000,22.000000
23.040024,35.833836,55.000000,19.000000,26.000000
26.350044,35.818985,49.000000,28.000000,29.000000
24.782257,35.807472,48.000000,26.000000,29.000000
19.739235,35.800240,54.000000,21.000000,23.000000
14.671123,35.797791,55.000000,24.000000,24.000000
12.445588,35.800282,55.000000,21.000000,24.000000
11.797272,35.807537,54.000000,23.000000,24.000000
9.703592,35.819042,53.000000,23.000000,24.000000
5.320361,35.833836,54.000000,23.000000,24.000000
-1.096480,35.818161,53.000000,22.000000,23.000000
-9.435217,35.805897,56.000000,21.000000,23.000000
-18.669870,35.798111,54.000000,22.000000,23.000000
-28.079403,35.795403,54.000000,23.000000,22.000000
-37.974583,35.797981,56.000000,22.000000,25.000000
-45.308018,35.805698,54.000000,25.000000,23.000000
-42.904457,35.817993,55.000000,21.000000,23.000000
-28.333124,35.833836,56.000000,24.000000,23.000000
-8.826787,35.819340,51.000000,23.000000,25.000000
6.735616,35.808224,50.000000,24.000000,27.000000
15.730043,35.801376,52.000000,23.000000,26.000000
18.620298,35.799225,52.000000,24.000000,28.000000
15.297527,35.801834,53.000000,25.000000,25.000000
8.259126,35.808945,59.000000,20.000000,24.000000
1.760451,35.819954,56.000000,21.000000,21.000000
-3.623276,35.833836,54.000000,21.000000,22.000000
-9.271073,35.816792,51.000000,22.000000,25.000000
-12.940531,35.802689,52.000000,25.000000,25.000000
-11.422680,35.792614,50.000000,24.000000,26.000000
-6.777698,35.787239,56.000000,23.000000,28.000000
-4.860513,35.786880,50.000000,24.000000,28.000000
-8.960923,35.791531,53.000000,25.000000,27.000000
-16.921589,35.800797,54.000000,24.000000,25.000000
-22.904181,35.813820,54.000000,24.000000,23.000000
-21.343847,35.796902,55.000000,23.000000,25.000000
-12.041392,35.783913,53.000000,23.000000,23.000000
-0.758582,35.775871,53.000000,23.000000,24.000000
7.254407,35.773296,53.000000,23.000000,24.000000
11.902431,35.776287,53.000000,22.000000,25.000000
14.700207,35.784569,55.000000,23.000000,24.000000
15.284943,35.797462,53.000000,25.000000,25.000000
14.091972,35.813820,56.000000,22.000000,23.000000
13.494827,35.799686,56.000000,24.000000,22.000000
13.601907,35.788734,51.000000,24.000000,23.000000
11.831025,35.781849,51.000000,25.000000,25.000000
7.951815,35.779503,51.000000,24.000000,26.000000
4.619120,35.781849,50.000000,23.000000,27.000000
2.384836,35.788734,50.000000,26.000000,27.000000
-1.653750,35.799686,49.000000,24.000000,30.000000
-9.664422,35.813820,53.000000,25.000000,25.000000
-19.025370,35.797451,54.000000,20.000000,22.000000
-23.020327,35.784546,57.000000,23.000000,23.000000
-17.199444,35.776253,54.000000,24.000000,22.000000
-4.374114,35.773254,54.000000,23.000000,24.000000
9.232972,35.775826,52.000000,23.000000,23.000000
19.736410,35.783875,54.000000,23.000000,25.000000
25.305681,35.796879,52.000000,25.000000,24.000000
25.720531,35.813820,49.000000,25.000000,26.000000
23.713963,35.800816,49.000000,24.000000,28.000000
22.455935,35.791565,52.000000,23.000000,27.000000
22.599335,35.786930,58.000000,24.000000,26.000000
22.189997,35.787296,57.000000,23.000000,24.000000
18.228296,35.792671,55.000000,22.000000,21.000000
10.288949,35.802738,54.000000,23.000000,21.000000
1.976998,35.816822,54.000000,21.000000,23.000000
-4.817760,35.833836,53.000000,22.000000,25.000000
-13.002283,35.819912,52.000000,23.000000,27.000000
-24.783903,35.808861,56.000000,22.000000,29.000000
-36.699810,35.801716,52.000000,27.000000,23.000000
-40.467171,35.799088,55.000000,23.000000,23.000000
-29.222324,35.801239,54.000000,25.000000,19.000000
-6.400380,35.808109,52.000000,24.000000,21.000000
16.175398,35.819275,55.000000,22.000000,26.000000
31.109245,35.833836,50.000000,24.000000,26.000000
38.481213,35.818062,50.000000,25.000000,32.000000
38.205460,35.805828,47.000000,26.000000,32.000000
30.134720,35.798161,53.000000,23.000000,25.000000
19.285614,35.795609,55.000000,21.000000,23.000000
11.611327,35.798313,57.000000,22.000000,17.000000
6.878033,35.806061,53.000000,22.000000,18.000000
1.350276,35.818253,58.000000,21.000000,23.000000
-4.823160,35.833836,54.000000,24.000000,26.000000
-8.423575,35.818939,50.000000,24.000000,30.000000
-9.621268,35.807339,53.000000,23.000000,30.000000
-12.121233,35.800007,50.000000,26.000000,26.000000
-18.089369,35.797478,53.000000,24.000000,24.000000
-26.784069,35.799934,57.000000,21.000000,21.000000
-34.238586,35.807228,56.000000,22.000000,22.000000
-32.982445,35.818848,52.000000,25.000000,26.000000
-19.464973,35.833836,52.000000,25.000000,26.000000
-1.339198,35.818409,54.000000,20.000000,23.000000
11.036107,35.806408,57.000000,20.000000,23.000000
16.453604,35.798859,55.000000,21.000000,23.000000
18.304667,35.796299,53.000000,22.000000,24.000000
15.927930,35.798901,54.000000,23.000000,26.000000
9.197997,35.806477,52.000000,25.000000,22.000000
3.776500,35.818462,52.000000,22.000000,22.000000
3.737911,35.833836,54.000000,24.000000,24.000000
5.691909,35.818756,55.000000,25.000000,26.000000
5.018932,35.807022,51.000000,24.000000,30.000000
2.140992,35.799618,52.000000,23.000000,29.000000
-0.362403,35.797081,52.000000,23.000000,26.000000
-2.392415,35.799587,53.000000,23.000000,24.000000
-6.513271,35.806976,57.000000,21.000000,21.000000
-15.227702,35.818718,57.000000,21.000000,20.000000
-27.737980,35.833836,55.000000,21.000000,21.000000
-37.790684,35.818523,53.000000,21.000000,23.000000
-36.349434,35.806614,54.000000,23.000000,27.000000
-19.982061,35.799114,52.000000,22.000000,27.000000
3.918387,35.796562,53.000000,23.000000,26.000000
23.798798,35.799133,49.000000,22.000000,25.000000
33.547966,35.806648,54.000000,24.000000,25.000000
33.066528,35.818550,54.000000,25.000000,26.000000
25.126316,35.833836,53.000000,23.000000,25.000000
15.323820,35.818684,56.000000,22.000000,23.000000
8.945880,35.806889,56.000000,21.000000,24.000000
5.734351,35.799450,53.000000,23.000000,25.000000
2.038586,35.796906,55.000000,20.000000,23.000000
-3.543684,35.799431,55.000000,20.000000,23.000000
-9.883567,35.806858,56.000000,22.000000,22.000000
-15.811323,35.818657,55.000000,20.000000,22.000000
-20.865961,35.833836,51.000000,24.000000,25.000000
-26.255623,35.818588,55.000000,25.000000,21.000000
-33.876873,35.806728,54.000000,25.000000,24.000000
-40.978149,35.799255,55.000000,24.000000,25.000000
-39.183510,35.796711,56.000000,22.000000,24.000000
-23.786808,35.799263,52.000000,24.000000,28.000000
-0.636579,35.806740,48.000000,23.000000,29.000000
20.572258,35.818600,51.000000,23.000000,26.000000
34.242771,35.833836,54.000000,20.000000,25.000000
37.457439,35.818638,60.000000,21.000000,22.000000
29.604511,35.806812,56.000000,19.000000,21.000000
16.265764,35.799355,52.000000,25.000000,22.000000
6.151462,35.796810,51.000000,24.000000,25.000000
2.775134,35.799347,52.000000,24.000000,26.000000
2.582778,35.806797,53.000000,26.000000,26.000000
0.444585,35.818626,54.000000,22.000000,26.000000
-4.305237,35.833836,53.000000,26.000000,24.000000
-7.866405,35.818615,50.000000,22.000000,26.000000
-8.891870,35.806774,52.000000,24.000000,25.000000
-11.544202,35.799313,54.000000,22.000000,26.000000
-19.857975,35.796768,56.000000,22.000000,24.000000
-31.992472,35.799313,53.000000,22.000000,27.000000
-39.376411,35.806774,51.000000,22.000000,27.000000
-32.511478,35.818615,53.000000,21.000000,24.000000
-12.029240,35.833836,54.000000,21.000000,25.000000
10.007243,35.818626,55.000000,20.000000,23.000000
23.693398,35.806797,54.000000,21.000000,24.000000
29.106527,35.799347,53.000000,25.000000,27.000000
28.920294,35.796810,48.000000,27.000000,28.000000
23.510895,35.799355,49.000000,27.000000,27.000000
15.602516,35.806812,51.000000,27.000000,26.000000
11.030215,35.818638,51.000000,26.000000,25.000000
11.603836,35.833836,54.000000,23.000000,24.000000
12.698822,35.818600,53.000000,21.000000,25.000000
10.857904,35.806740,50.000000,21.000000,26.000000
8.016452,35.799263,54.000000,20.000000,25.000000
5.206185,35.796711,52.000000,20.000000,25.000000
-0.888320,35.799255,54.000000,23.000000,26.000000
-11.908282,35.806728,57.000000,22.000000,27.000000
-24.622633,35.818588,58.000000,23.000000,24.000000
-34.394661,35.833836,52.000000,21.000000,27.000000
-36.709057,35.818657,52.000000,24.000000,25.000000
-27.893871,35.806858,50.000000,25.000000,26.000000
-9.357452,35.799431,50.000000,25.000000,26.000000
11.794739,35.796906,50.000000,24.000000,26.000000
28.795780,35.799450,51.000000,22.000000,28.000000
38.180935,35.806889,55.000000,24.000000,25.000000
37.971470,35.818684,55.000000,22.000000,24.000000
28.769604,35.833836,54.000000,20.000000,25.000000
15.933470,35.818550,54.000000,23.000000,24.000000
5.893861,35.806648,52.000000,21.000000,26.000000
1.080087,35.799133,52.000000,21.000000,27.000000
-0.138471,35.796562,50.000000,24.000000,28.000000
-0.881100,35.799114,54.000000,24.000000,30.000000
-3.070658,35.806614,57.000000,22.000000,21.000000
-5.878918,35.818523,58.000000,21.000000,20.000000
-7.790612,35.833836,54.000000,23.000000,20.000000
-9.501546,35.818718,52.000000,24.000000,23.000000
-13.128200,35.806976,50.000000,23.000000,26.000000
-20.170923,35.799587,51.000000,23.000000,28.000000
-28.760035,35.797081,48.000000,28.000000,32.000000
-31.011774,35.799618,49.000000,26.000000,32.000000
-18.957026,35.807022,57.000000,22.000000,24.000000
3.936385,35.818756,54.000000,21.000000,20.000000
24.521652,35.833836,55.000000,21.000000,19.000000
34.730717,35.818462,51.000000,24.000000,22.000000
36.422638,35.806477,52.000000,23.000000,25.000000
33.030403,35.798901,55.000000,20.000000,27.000000
26.370901,35.796299,53.000000,24.000000,27.000000
20.457378,35.798859,53.000000,24.000000,27.000000
19.405396,35.806408,49.000000,24.000000,26.000000
21.632030,35.818409,50.000000,24.000000,25.000000
22.155310,35.833836,53.000000,23.000000,24.000000
18.910192,35.818848,56.000000,23.000000,22.000000
12.605930,35.807228,54.000000,23.000000,24.000000
3.213370,35.799934,54.000000,23.000000,23.000000
-9.791883,35.797478,55.000000,21.000000,23.000000
-25.405235,35.800007,54.000000,21.000000,24.000000
-41.374218,35.807339,52.000000,22.000000,25.000000
-54.944569,35.818939,52.000000,24.000000,28.000000
-61.610733,35.833836,54.000000,24.000000,25.000000
-55.238724,35.818253,57.000000,22.000000,23.000000
-34.050018,35.806061,55.000000,22.000000,23.000000
-5.909628,35.798313,52.000000,24.000000,23.000000
17.033854,35.795609,50.000000,23.000000,24.000000
28.604933,35.798161,53.000000,24.000000,26.000000
30.512447,35.805828,51.000000,24.000000,27.000000
26.632076,35.818062,50.000000,25.000000,30.000000
19.772972,35.833836,49.000000,26.000000,30.000000
13.044287,35.819286,54.000000,22.000000,24.000000
9.611660,35.808132,55.000000,22.000000,20.000000
9.168498,35.801273,54.000000,20.000000,21.000000
7.881208,35.799129,55.000000,22.000000,20.000000
3.600247,35.801762,57.000000,22.000000,26.000000
-1.889810,35.808899,55.000000,22.000000,28.000000
-6.658625,35.819935,48.000000,26.000000,29.000000
-11.063622,35.833836,52.000000,24.000000,26.000000
-16.441484,35.816803,55.000000,24.000000,23.000000
-24.305492,35.802700,53.000000,24.000000,21.000000
-34.571606,35.792622,56.000000,23.000000,23.000000
-40.955368,35.787239,54.000000,22.000000,24.000000
-33.787914,35.786873,53.000000,24.000000,27.000000
-12.464482,35.791519,54.000000,24.000000,26.000000
11.104970,35.800785,54.000000,22.000000,25.000000
25.656876,35.813820,54.000000,21.000000,22.000000
30.184790,35.796921,56.000000,21.000000,23.000000
28.151663,35.783958,53.000000,23.000000,24.000000
21.189484,35.775944,53.000000,24.000000,24.000000
11.944139,35.773392,58.000000,22.000000,23.000000
5.508328,35.776390,54.000000,24.000000,23.000000
4.073488,35.784660,52.000000,24.000000,24.000000
4.683777,35.797516,53.000000,24.000000,24.000000
4.536563,35.813820,49.000000,25.000000,26.000000
4.263654,35.799622,51.000000,24.000000,29.000000
4.237121,35.788605,49.000000,25.000000,30.000000
2.610781,35.781670,53.000000,22.000000,26.000000
-1.417793,35.779297,61.000000,17.000000,18.000000
-6.910571,35.781647,59.000000,22.000000,18.000000
-14.510300,35.788570,55.000000,23.000000,22.000000
-25.272024,35.799595,51.000000,24.000000,25.000000
-34.245796,35.813820,52.000000,25.000000,27.000000
-31.511566,35.797554,50.000000,23.000000,27.000000
-13.867127,35.784744,51.000000,24.000000,27.000000
9.547358,35.776527,54.000000,25.000000,26.000000
27.275948,35.773567,54.000000,22.000000,25.000000
35.980873,35.776131,54.000000,26.000000,24.000000
37.970814,35.784119,54.000000,21.000000,23.000000
35.282909,35.797020,54.000000,24.000000,23.000000
29.384342,35.813820,53.000000,24.000000,24.000000
22.096210,35.800659,54.000000,21.000000,25.000000
14.785327,35.791267,54.000000,20.000000,20.000000
7.831085,35.786522,53.000000,20.000000,21.000000
0.746833,35.786831,55.000000,22.000000,24.000000
-6.586889,35.792217,54.000000,23.000000,24.000000
-12.426538,35.802372,56.000000,25.000000,25.000000
-15.097798,35.816612,52.000000,23.000000,23.000000
-16.003651,35.833836,55.000000,25.000000,24.000000
-18.181005,35.820145,55.000000,25.000000,23.000000
-23.519823,35.809315,51.000000,24.000000,25.000000
-32.123310,35.802338,50.000000,23.000000,26.000000
-39.937389,35.799797,49.000000,25.000000,28.000000
-37.913364,35.801933,52.000000,23.000000,27.000000
-21.023222,35.808674,55.000000,22.000000,25.000000
3.161170,35.819595,58.000000,20.000000,21.000000
21.665747,35.833836,54.000000,22.000000,21.000000
29.269527,35.817696,55.000000,22.000000,25.000000
28.541187,35.805111,53.000000,23.000000,25.000000
22.018299,35.797161,53.000000,23.000000,28.000000
11.809663,35.794449,53.000000,24.000000,29.000000
2.728498,35.797161,48.000000,25.000000,27.000000
-0.946737,35.805111,51.000000,24.000000,27.000000
0.187149,35.817696,51.000000,25.000000,25.000000
2.327460,35.833836,53.000000,21.000000,24.000000
2.726785,35.819618,54.000000,24.000000,25.000000
0.821279,35.808716,54.000000,22.000000,25.000000
-3.699024,35.801998,55.000000,21.000000,22.000000
-11.935111,35.799881,58.000000,20.000000,22.000000
-23.298038,35.802425,54.000000,19.000000,23.000000
-34.326206,35.809391,55.000000,20.000000,26.000000
-41.377243,35.820190,56.000000,25.000000,28.000000
-40.882607,35.833836,52.000000,24.000000,30.000000
-29.017017,35.816574,49.000000,29.000000,25.000000
-7.474076,35.802299,52.000000,26.000000,25.000000
14.275851,35.792118,51.000000,23.000000,21.000000
28.044920,35.786713,51.000000,22.000000,25.000000
33.683590,35.786404,52.000000,25.000000,28.000000
33.679585,35.791172,50.000000,25.000000,32.000000
28.627729,35.800606,52.000000,25.000000,28.000000
21.152262,35.813820,56.000000,19.000000,22.000000
16.223751,35.797100,59.000000,20.000000,20.000000
13.955300,35.784286,55.000000,23.000000,18.000000
8.777692,35.776367,54.000000,21.000000,28.000000
-1.119925,35.773842,53.000000,24.000000,29.000000
-10.443387,35.776802,48.000000,27.000000,30.000000
-15.209531,35.784973,48.000000,26.000000,31.000000
-17.525700,35.797688,50.000000,26.000000,28.000000
-20.893204,35.813820,54.000000,23.000000,24.000000
-26.520641,35.799465,56.000000,22.000000,24.000000
-33.684212,35.788315,55.000000,23.000000,24.000000
-37.456264,35.781288,52.000000,22.000000,25.000000
-29.624922,35.778889,52.000000,23.000000,26.000000
-9.650390,35.781269,51.000000,22.000000,25.000000
10.901949,35.788280,53.000000,22.000000,26.000000
21.708241,35.799438,53.000000,24.000000,24.000000
23.901436,35.813820,54.000000,23.000000,26.000000
22.446798,35.797733,58.000000,24.000000,23.000000
18.385757,35.785080,52.000000,25.000000,24.000000
12.537989,35.776974,52.000000,26.000000,25.000000
8.196046,35.774059,50.000000,26.000000,26.000000
6.986196,35.776596,51.000000,23.000000,27.000000
7.015775,35.784485,50.000000,25.000000,30.000000
6.097699,35.797222,51.000000,25.000000,27.000000
4.044929,35.813820,53.000000,22.000000,28.000000
1.473975,35.800461,56.000000,21.000000,24.000000
-2.057313,35.790882,56.000000,21.000000,19.000000
-7.631206,35.785999,54.000000,21.000000,22.000000
-15.933863,35.786243,54.000000,23.000000,23.000000
-27.452780,35.791656,53.000000,22.000000,27.000000
-39.262730,35.801922,51.000000,27.000000,28.000000
-41.663593,35.816357,50.000000,25.000000,28.000000
-26.834368,35.833836,52.000000,23.000000,26.000000
-0.524707,35.820438,54.000000,24.000000,25.000000
23.446680,35.809883,52.000000,22.000000,23.000000
37.781235,35.803120,55.000000,23.000000,23.000000
43.024734,35.800686,53.000000,23.000000,25.000000
40.686306,35.802795,54.000000,22.000000,27.000000
32.882004,35.809372,54.000000,23.000000,24.000000
23.661114,35.819996,54.000000,20.000000,24.000000
15.757703,35.833836,56.000000,22.000000,24.000000
8.474404,35.817268,52.000000,24.000000,24.000000
0.662529,35.804264,57.000000,22.000000,24.000000
-5.947710,35.795982,54.000000,25.000000,24.000000
-8.665186,35.793083,51.000000,24.000000,25.000000
-8.019723,35.795811,51.000000,26.000000,26.000000
-7.587922,35.804001,50.000000,24.000000,27.000000
-10.511847,35.817051,52.000000,23.000000,30.000000
-17.941936,35.833836,49.000000,25.000000,28.000000
-28.362255,35.820377,52.000000,22.000000,27.000000
-35.084904,35.810253,54.000000,21.000000,24.000000
-28.789442,35.804199,57.000000,21.000000,21.000000
-8.565440,35.802513,59.000000,20.000000,20.000000
14.147058,35.805134,52.000000,22.000000,23.000000
27.884846,35.811722,53.000000,20.000000,25.000000
31.371708,35.821625,50.000000,26.000000,30.000000
28.364025,35.833836,51.000000,23.000000,28.000000
21.314030,35.814625,53.000000,24.000000,26.000000
13.094954,35.797958,52.000000,25.000000,25.000000
7.722528,35.785069,52.000000,25.000000,25.000000
6.762431,35.776775,54.000000,24.000000,26.000000
7.735750,35.773567,52.000000,24.000000,25.000000
6.676613,35.775593,53.000000,23.000000,27.000000
2.330100,35.782597,53.000000,23.000000,25.000000
-3.607875,35.793808,54.000000,21.000000,25.000000
-10.934685,35.775597,58.000000,20.000000,24.000000
-21.314520,35.761833,54.000000,21.000000,24.000000
-34.446449,35.753502,54.000000,24.000000,26.000000
-47.044193,35.751038,55.000000,23.000000,25.000000
-53.097687,35.754436,54.000000,25.000000,24.000000
-45.467770,35.763302,52.000000,25.000000,24.000000
-23.754477,35.776844,51.000000,25.000000,25.000000
1.829363,35.793808,52.000000,24.000000,26.000000
20.893919,35.780170,50.000000,24.000000,29.000000
31.643923,35.769554,52.000000,26.000000,29.000000
35.232616,35.762825,53.000000,24.000000,29.000000
31.163927,35.760464,58.000000,20.000000,20.000000
21.958414,35.762653,58.000000,19.000000,21.000000
13.293182,35.769291,54.000000,22.000000,21.000000
7.496857,35.779953,53.000000,22.000000,23.000000
2.935904,35.793808,55.000000,24.000000,28.000000
-1.494137,35.777225,52.000000,23.000000,30.000000
-5.428862,35.764183,50.000000,26.000000,28.000000
-8.594102,35.755840,49.000000,27.000000,28.000000
-10.967924,35.752865,53.000000,23.000000,25.000000
-13.396502,35.755516,52.000000,23.000000,23.000000
-18.500332,35.763672,57.000000,23.000000,24.000000
-26.966549,35.776783,58.000000,23.000000,24.000000
-32.050079,35.793808,53.000000,23.000000,25.000000
-24.307234,35.780865,51.000000,22.000000,26.000000
-5.034281,35.771633,53.000000,22.000000,24.000000
13.262795,35.766979,55.000000,20.000000,24.000000
22.535692,35.767303,54.000000,23.000000,25.000000
24.795656,35.772636,51.000000,25.000000,25.000000
22.578171,35.782673,57.000000,23.000000,25.000000
16.479456,35.796761,52.000000,23.000000,21.000000
10.232719,35.813820,54.000000,24.000000,24.000000
7.872516,35.799999,55.000000,25.000000,24.000000
8.337614,35.789070,51.000000,23.000000,26.000000
8.387906,35.782040,51.000000,24.000000,29.000000
7.583131,35.779491,46.000000,27.000000,31.000000
7.173716,35.781662,50.000000,25.000000,29.000000
6.558755,35.788475,57.000000,20.000000,22.000000
3.096956,35.799488,58.000000,19.000000,20.000000
-4.954172,35.813820,56.000000,19.000000,19.000000
-17.255135,35.797783,54.000000,19.000000,23.000000
-31.248827,35.785275,51.000000,25.000000,29.000000
-39.939026,35.777367,53.000000,23.000000,31.000000
-34.352333,35.774662,51.000000,26.000000,26.000000
-13.950133,35.777348,51.000000,24.000000,26.000000
10.367693,35.785240,52.000000,24.000000,25.000000
27.656847,35.797756,51.000000,25.000000,24.000000
35.519447,35.813820,53.000000,23.000000,24.000000
35.986073,35.799534,54.000000,24.000000,23.000000
30.443224,35.788582,53.000000,23.000000,23.000000
20.899048,35.781834,53.000000,22.000000,25.000000
10.985155,35.779709,52.000000,23.000000,24.000000
3.557439,35.782269,55.000000,21.000000,26.000000
-1.465281,35.789268,56.000000,21.000000,27.000000
-5.768941,35.800121,56.000000,23.000000,26.000000
-9.851372,35.813820,53.000000,24.000000,26.000000
-12.699412,35.796616,53.000000,26.000000,23.000000
-14.160734,35.782383,52.000000,25.000000,23.000000
-16.073427,35.772232,51.000000,25.000000,25.000000
-20.752253,35.766838,51.000000,25.000000,26.000000
-29.310898,35.766518,48.000000,25.000000,30.000000
-38.354187,35.771255,48.000000,26.000000,32.000000
-38.295418,35.780647,51.000000,24.000000,29.000000
-22.203119,35.793808,54.000000,22.000000,24.000000
3.081959,35.777031,60.000000,18.000000,19.000000
22.762667,35.764164,57.000000,20.000000,19.000000
29.961323,35.756210,49.000000,23.000000,28.000000
28.143513,35.753670,52.000000,22.000000,32.000000
22.050627,35.756638,49.000000,27.000000,31.000000
14.771380,35.764835,49.000000,26.000000,30.000000
9.405414,35.777603,51.000000,24.000000,26.000000
7.519685,35.793808,50.000000,26.000000,24.000000
7.890486,35.779526,55.000000,23.000000,25.000000
8.118905,35.768444,53.000000,24.000000,25.000000
6.873221,35.761475,55.000000,23.000000,25.000000
4.469414,35.759102,52.000000,23.000000,27.000000
1.150875,35.761475,51.000000,22.000000,28.000000
-5.062183,35.768444,50.000000,23.000000,27.000000
-16.705292,35.779526,53.000000,23.000000,27.000000
-33.012478,35.793808,54.000000,22.000000,25.000000
-49.160114,35.777615,51.000000,23.000000,24.000000
-57.492420,35.764858,57.000000,23.000000,21.000000
-50.470470,35.756672,55.000000,26.000000,21.000000
-27.998318,35.753712,51.000000,23.000000,26.000000
-0.471005,35.756252,53.000000,25.000000,26.000000
20.552073,35.764202,50.000000,25.000000,29.000000
31.818817,35.777054,49.000000,25.000000,29.000000
35.202675,35.793808,49.000000,22.000000,27.000000
31.857182,35.780628,52.000000,24.000000,29.000000
24.237432,35.771221,55.000000,22.000000,23.000000
17.343212,35.766468,56.000000,19.000000,23.000000
13.920468,35.766777,52.000000,24.000000,22.000000
11.590484,35.772175,52.000000,22.000000,24.000000
6.591474,35.782337,55.000000,23.000000,25.000000
-0.875441,35.796589,50.000000,26.000000,27.000000
-6.756710,35.813820,53.000000,25.000000,28.000000
-8.830216,35.800163,51.000000,26.000000,26.000000
-9.529939,35.789352,51.000000,24.000000,26.000000
-12.262987,35.782387,53.000000,24.000000,24.000000
-18.605726,35.779846,51.000000,24.000000,24.000000
-26.686834,35.781971,54.000000,22.000000,23.000000
-29.028921,35.788696,54.000000,24.000000,25.000000
-18.199789,35.799603,52.000000,23.000000,26.000000
2.605741,35.813820,50.000000,24.000000,26.000000
21.764631,35.797691,55.000000,22.000000,26.000000
31.438040,35.785110,52.000000,22.000000,23.000000
31.406504,35.777168,53.000000,24.000000,25.000000
24.651041,35.774456,55.000000,21.000000,22.000000
15.303469,35.777168,56.000000,22.000000,21.000000
8.008499,35.785110,56.000000,24.000000,22.000000
5.869073,35.797691,56.000000,23.000000,24.000000
8.406446,35.813820,52.000000,23.000000,25.000000
11.999586,35.799591,53.000000,25.000000,25.000000
13.043859,35.788673,49.000000,26.000000,30.000000
10.876698,35.781937,52.000000,25.000000,29.000000
6.922616,35.779804,54.000000,21.000000,24.000000
1.916519,35.782345,57.000000,21.000000,21.000000
-5.210300,35.789314,56.000000,21.000000,19.000000
-16.341341,35.800140,52.000000,21.000000,23.000000
-30.965565,35.813820,52.000000,23.000000,25.000000
-42.717907,35.796608,55.000000,22.000000,25.000000
-41.513004,35.782372,54.000000,24.000000,27.000000
-23.263226,35.772224,50.000000,26.000000,25.000000
3.616776,35.766838,50.000000,24.000000,25.000000
26.130341,35.766525,55.000000,22.000000,24.000000
38.618809,35.771267,55.000000,23.000000,23.000000
42.518711,35.780655,55.000000,22.000000,25.000000
39.576115,35.793808,54.000000,22.000000,24.000000
31.281759,35.777012,54.000000,20.000000,24.000000
21.059267,35.764122,55.000000,23.000000,25.000000
12.707615,35.756138,53.000000,21.000000,24.000000
8.027975,35.753574,58.000000,20.000000,24.000000
6.369152,35.756535,55.000000,22.000000,22.000000
5.357388,35.764748,55.000000,21.000000,24.000000
2.888683,35.777550,55.000000,24.000000,23.000000
-0.822128,35.793808,55.000000,24.000000,22.000000
-3.934725,35.779591,53.000000,22.000000,23.000000
-6.106758,35.768574,53.000000,23.000000,24.000000
-10.022010,35.761654,51.000000,23.000000,28.000000
-18.957680,35.759304,50.000000,25.000000,27.000000
-31.904825,35.761673,50.000000,26.000000,29.000000
-40.597015,35.768604,53.000000,22.000000,26.000000
-34.513645,35.779617,56.000000,22.000000,21.000000
-12.620179,35.793808,56.000000,21.000000,19.000000
12.937754,35.777523,54.000000,21.000000,23.000000
28.704279,35.764683,53.000000,23.000000,23.000000
32.082088,35.756432,55.000000,22.000000,26.000000
28.559301,35.753441,53.000000,24.000000,28.000000
22.377495,35.755993,49.000000,25.000000,28.000000
14.989176,35.763996,51.000000,25.000000,27.000000
8.830723,35.776939,54.000000,23.000000,25.000000
6.636338,35.793808,56.000000,21.000000,23.000000
7.887553,35.780762,56.000000,22.000000,23.000000
9.847503,35.771484,53.000000,22.000000,26.000000
10.355119,35.766830,54.000000,22.000000,26.000000
7.350758,35.767189,51.000000,22.000000,26.000000
-0.486669,35.772572,53.000000,21.000000,25.000000
-11.306557,35.782654,55.000000,22.000000,24.000000
-21.483406,35.796768,52.000000,22.000000,24.000000
-29.902084,35.813820,54.000000,22.000000,23.000000
-38.475803,35.799973,54.000000,23.000000,22.000000
-46.828846,35.788986,55.000000,23.000000,23.000000
-48.026806,35.781883,53.000000,24.000000,25.000000
-34.635246,35.779274,51.000000,23.000000,27.000000
-9.858894,35.781414,50.000000,25.000000,28.000000
14.275776,35.788246,49.000000,26.000000,30.000000
29.869190,35.799347,49.000000,25.000000,31.000000
36.466938,35.813820,52.000000,23.000000,25.000000
34.972912,35.797989,55.000000,21.000000,22.000000
27.119638,35.785698,55.000000,20.000000,21.000000
17.455938,35.777988,56.000000,21.000000,23.000000
10.005409,35.775410,51.000000,24.000000,27.000000
5.106198,35.778118,53.000000,21.000000,30.000000
1.150055,35.785900,51.000000,25.000000,29.000000
-2.676513,35.798153,53.000000,23.000000,27.000000
-6.109515,35.813820,50.000000,26.000000,27.000000
-9.096658,35.799046,50.000000,26.000000,26.000000
-11.911830,35.787563,52.000000,24.000000,25.000000
-14.165260,35.780319,54.000000,24.000000,23.000000
-16.473375,35.777840,50.000000,25.000000,27.000000
-22.012539,35.780289,54.000000,24.000000,27.000000
-30.905025,35.787510,52.000000,22.000000,27.000000
-35.192066,35.799004,55.000000,22.000000,26.000000
-26.676531,35.813820,54.000000,20.000000,27.000000
-8.078747,35.798229,53.000000,26.000000,24.000000
10.280203,35.786076,54.000000,22.000000,27.000000
22.669394,35.778400,53.000000,26.000000,23.000000
30.231314,35.775780,52.000000,25.000000,24.000000
33.827274,35.778393,52.000000,25.000000,28.000000
31.980450,35.786064,52.000000,25.000000,27.000000
25.250357,35.798222,49.000000,25.000000,30.000000
17.597565,35.813820,48.000000,26.000000,31.000000
12.280700,35.799023,48.000000,26.000000,30.000000
9.087298,35.787556,50.000000,23.000000,25.000000
6.469685,35.780361,56.000000,21.000000,23.000000
3.061558,35.777935,53.000000,24.000000,21.000000
-2.896708,35.780422,49.000000,23.000000,26.000000
-11.658307,35.787651,55.000000,21.000000,27.000000
-20.481472,35.799103,56.000000,21.000000,29.000000
-28.027308,35.813820,54.000000,23.000000,29.000000
-36.828880,35.798088,50.000000,24.000000,28.000000
-46.128124,35.785770,50.000000,25.000000,27.000000
-46.671192,35.777939,51.000000,25.000000,27.000000
-30.045130,35.775208,51.000000,25.000000,26.000000
-0.919258,35.777790,55.000000,24.000000,25.000000
26.623688,35.785538,52.000000,24.000000,28.000000
43.054680,35.797897,51.000000,24.000000,27.000000
47.567715,35.813820,50.000000,24.000000,27.000000
42.383663,35.799438,53.000000,23.000000,26.000000
30.829144,35.788425,54.000000,22.000000,25.000000
18.280121,35.781654,53.000000,23.000000,26.000000
9.234087,35.779545,57.000000,23.000000,23.000000
4.632437,35.782143,56.000000,24.000000,25.000000
3.230493,35.789192,53.000000,26.000000,24.000000
3.261002,35.800087,50.000000,24.000000,27.000000
3.004416,35.813820,49.000000,25.000000,28.000000
1.673849,35.796635,49.000000,26.000000,28.000000
-0.224987,35.782391,49.000000,25.000000,31.000000
-1.804645,35.772209,50.000000,27.000000,30.000000
-3.490028,35.766777,56.000000,21.000000,25.000000
-8.019822,35.766430,57.000000,19.000000,23.000000
-18.060358,35.771164,50.000000,21.000000,25.000000
-30.364281,35.780582,48.000000,22.000000,26.000000
-34.365284,35.793808,52.000000,24.000000,32.000000
-22.176914,35.777130,54.000000,25.000000,31.000000
0.798145,35.764366,51.000000,25.000000,26.000000
21.561682,35.756496,53.000000,22.000000,26.000000
33.529682,35.754013,52.000000,24.000000,25.000000
38.328423,35.756985,52.000000,25.000000,26.000000
38.477715,35.765133,52.000000,24.000000,30.000000
35.719234,35.777779,52.000000,25.000000,28.000000
32.242153,35.793808,51.000000,22.000000,28.000000
28.389353,35.779320,54.000000,22.000000,28.000000
22.474216,35.768017,52.000000,22.000000,24.000000
14.556032,35.760853,54.000000,20.000000,26.000000
6.609316,35.758350,54.000000,23.000000,25.000000
-1.573417,35.760704,51.000000,22.000000,27.000000
-12.002849,35.767788,51.000000,24.000000,27.000000
-23.240837,35.779129,52.000000,25.000000,25.000000
-30.460772,35.793808,56.000000,22.000000,25.000000
-32.360722,35.778114,51.000000,23.000000,25.000000
-33.461250,35.765903,52.000000,24.000000,26.000000
-38.208233,35.758217,51.000000,23.000000,27.000000
-44.657890,35.755623,47.000000,26.000000,31.000000
-44.019768,35.758282,47.000000,27.000000,33.000000
-28.838097,35.765999,53.000000,23.000000,27.000000
-3.175029,35.778194,55.000000,21.000000,24.000000
19.811806,35.793808,57.000000,23.000000,22.000000
31.047224,35.778996,49.000000,23.000000,24.000000
30.833698,35.767490,52.000000,23.000000,26.000000
23.681738,35.760246,54.000000,22.000000,30.000000
14.544048,35.757774,53.000000,24.000000,28.000000
7.350627,35.760239,50.000000,24.000000,27.000000
3.255489,35.767479,51.000000,26.000000,25.000000
1.893213,35.778988,51.000000,24.000000,24.000000
3.178972,35.793808,53.000000,24.000000,25.000000
5.440015,35.778214,54.000000,23.000000,26.000000
5.095248,35.766045,53.000000,22.000000,25.000000
1.138460,35.758354,53.000000,23.000000,25.000000
-3.367608,35.755718,53.000000,22.000000,26.000000
-6.570807,35.758320,54.000000,23.000000,26.000000
-11.505813,35.765995,53.000000,24.000000,25.000000
-22.409441,35.778172,54.000000,21.000000,27.000000
-38.203632,35.793808,53.000000,24.000000,25.000000
-49.349545,35.779060,55.000000,21.000000,25.000000
-44.474972,35.767658,56.000000,24.000000,23.000000
-23.488804,35.760525,53.000000,25.000000,25.000000
1.072240,35.758144,52.000000,23.000000,26.000000
18.190228,35.760654,49.000000,24.000000,27.000000
26.541140,35.767857,50.000000,24.000000,29.000000
28.279573,35.779228,50.000000,25.000000,32.000000
24.579557,35.793808,46.000000,26.000000,34.000000
18.023209,35.777870,53.000000,21.000000,26.000000
11.951591,35.765308,58.000000,21.000000,22.000000
6.958954,35.757225,57.000000,20.000000,22.000000
1.295932,35.754284,52.000000,22.000000,23.000000
-5.125974,35.756760,53.000000,23.000000,28.000000
-10.055932,35.764572,53.000000,24.000000,30.000000
-12.910662,35.777245,50.000000,25.000000,28.000000
-15.944007,35.793808,52.000000,24.000000,27.000000
-20.112682,35.780445,54.000000,23.000000,23.000000
-23.991655,35.770901,54.000000,23.000000,23.000000
-27.670729,35.766071,52.000000,23.000000,25.000000
-31.872297,35.766369,54.000000,23.000000,26.000000
-32.600765,35.771812,52.000000,23.000000,27.000000
-23.865231,35.782074,53.000000,22.000000,27.000000
-6.962772,35.796452,52.000000,23.000000,25.000000
9.648448,35.813820,54.000000,21.000000,24.000000
19.720842,35.800278,55.000000,21.000000,24.000000
22.891571,35.789558,54.000000,25.000000,24.000000
20.933409,35.782646,52.000000,23.000000,26.000000
16.089066,35.780117,54.000000,26.000000,25.000000
11.872460,35.782211,52.000000,24.000000,25.000000
10.954431,35.788872,51.000000,24.000000,25.000000
11.857323,35.799694,51.000000,24.000000,26.000000
10.744400,35.813820,50.000000,25.000000,29.000000
6.734482,35.797600,49.000000,25.000000,29.000000
2.562381,35.784950,50.000000,24.000000,30.000000
-0.372307,35.776966,49.000000,24.000000,27.000000
-4.286816,35.774250,56.000000,20.000000,22.000000
-11.648070,35.776989,55.000000,21.000000,23.000000
-22.543865,35.784981,55.000000,25.000000,25.000000
-34.434357,35.797626,55.000000,23.000000,25.000000
-41.237419,35.813820,52.000000,22.000000,29.000000
-35.652561,35.799679,50.000000,24.000000,27.000000
-17.098322,35.788834,53.000000,21.000000,26.000000
5.508998,35.782143,51.000000,24.000000,25.000000
22.843046,35.780025,54.000000,23.000000,26.000000
32.969608,35.782547,53.000000,23.000000,26.000000
37.432045,35.789474,55.000000,24.000000,26.000000
36.218632,35.800224,54.000000,22.000000,27.000000
30.097296,35.813820,50.000000,24.000000,27.000000
22.078733,35.796543,53.000000,23.000000,26.000000
13.945234,35.782253,57.000000,22.000000,23.000000
5.178544,35.772064,55.000000,21.000000,21.000000
-3.446711,35.766663,57.000000,20.000000,23.000000
-9.279049,35.766361,54.000000,23.000000,24.000000
-11.260960,35.771137,54.000000,22.000000,25.000000
-11.516498,35.780582,52.000000,25.000000,27.000000
-13.360477,35.793808,52.000000,24.000000,25.000000
-18.794752,35.777119,52.000000,25.000000,25.000000
-27.389425,35.764324,51.000000,25.000000,27.000000
-35.192173,35.756416,50.000000,24.000000,30.000000
-34.966309,35.753891,49.000000,26.000000,29.000000
-22.150257,35.756840,53.000000,22.000000,25.000000
-1.673347,35.764996,55.000000,20.000000,24.000000
15.881022,35.777691,52.000000,22.000000,21.000000
24.734871,35.793808,50.000000,22.000000,24.000000
25.935173,35.779457,56.000000,20.000000,27.000000
21.979927,35.768314,56.000000,21.000000,27.000000
15.164995,35.761295,54.000000,23.000000,28.000000
9.239962,35.758896,54.000000,24.000000,27.000000
7.976232,35.761272,49.000000,25.000000,26.000000
10.915154,35.768284,51.000000,24.000000,27.000000
13.167894,35.779434,53.000000,22.000000,23.000000
11.612989,35.793808,56.000000,22.000000,24.000000
8.305763,35.777729,53.000000,22.000000,24.000000
5.497712,35.765083,52.000000,22.000000,25.000000
1.442134,35.756977,55.000000,22.000000,26.000000
-7.106699,35.754066,50.000000,22.000000,27.000000
-21.461529,35.756603,56.000000,22.000000,26.000000
-38.443794,35.764484,55.000000,22.000000,27.000000
-48.200520,35.777218,57.000000,22.000000,23.000000
-40.445625,35.793808,55.000000,23.000000,24.000000
-16.923937,35.780457,55.000000,24.000000,25.000000
8.615360,35.770885,50.000000,23.000000,26.000000
24.832336,35.766006,51.000000,24.000000,28.000000
30.611607,35.766251,52.000000,24.000000,28.000000
29.139202,35.771660,47.000000,26.000000,31.000000
22.869612,35.781921,45.000000,28.000000,32.000000
15.200309,35.796352,51.000000,24.000000,27.000000
9.984136,35.813820,55.000000,20.000000,23.000000
7.790091,35.800434,57.000000,21.000000,21.000000
5.535434,35.789886,52.000000,22.000000,24.000000
0.704184,35.783127,52.000000,22.000000,27.000000
-5.569824,35.780693,55.000000,21.000000,29.000000
-10.787868,35.782803,56.000000,23.000000,30.000000
-14.519771,35.789371,50.000000,25.000000,27.000000
-17.531591,35.799992,47.000000,25.000000,27.000000
-20.234571,35.813820,52.000000,25.000000,24.000000
-22.674433,35.797260,53.000000,24.000000,23.000000
-21.886148,35.784267,53.000000,23.000000,27.000000
-12.409952,35.775990,54.000000,25.000000,29.000000
5.256833,35.773090,53.000000,23.000000,27.000000
22.790545,35.775818,50.000000,22.000000,27.000000
33.753574,35.784000,55.000000,22.000000,25.000000
36.183655,35.797043,56.000000,22.000000,23.000000
27.747784,35.813820,54.000000,22.000000,26.000000
10.072420,35.800362,53.000000,25.000000,26.000000
-6.566092,35.790230,53.000000,21.000000,26.000000
-12.749084,35.784172,54.000000,24.000000,25.000000
-9.362885,35.782478,53.000000,23.000000,24.000000
-3.256241,35.785095,54.000000,23.000000,24.000000
0.699524,35.791683,51.000000,25.000000,26.000000
1.223594,35.801598,50.000000,25.000000,28.000000
-0.505145,35.813820,49.000000,28.000000,30.000000
-2.429084,35.794640,47.000000,27.000000,31.000000
-4.525504,35.777996,50.000000,22.000000,27.000000
-9.841233,35.765121,57.000000,22.000000,24.000000
-20.006742,35.756840,56.000000,21.000000,21.000000
-29.319643,35.753632,56.000000,23.000000,23.000000
-28.126377,35.755642,54.000000,23.000000,25.000000
-14.149045,35.762615,55.000000,22.000000,25.000000
4.310236,35.773792,51.000000,24.000000,29.000000
18.590158,35.755550,51.000000,26.000000,27.000000
27.122204,35.741753,52.000000,24.000000,26.000000
31.361845,35.733391,51.000000,26.000000,23.000000
31.953978,35.730907,53.000000,23.000000,25.000000
30.666868,35.734303,54.000000,23.000000,25.000000
29.886229,35.743191,53.000000,23.000000,24.000000
29.061459,35.756771,53.000000,23.000000,28.000000
25.654593,35.773792,52.000000,24.000000,27.000000
18.742554,35.760235,51.000000,23.000000,27.000000
9.129768,35.749683,56.000000,21.000000,25.000000
-2.131275,35.743008,52.000000,23.000000,24.000000
-13.405168,35.740677,56.000000,23.000000,25.000000
-21.756121,35.742859,56.000000,24.000000,22.000000
-25.636177,35.749454,52.000000,23.000000,24.000000
-28.457829,35.760040,51.000000,25.000000,26.000000
-33.262604,35.773792,50.000000,24.000000,27.000000
-34.467697,35.757118,49.000000,26.000000,30.000000
-24.119431,35.743984,47.000000,27.000000,31.000000
-4.528131,35.735569,48.000000,26.000000,33.000000
14.514177,35.732555,48.000000,27.000000,32.000000
26.324753,35.735218,54.000000,22.000000,24.000000
28.937021,35.743427,57.000000,20.000000,23.000000
23.041517,35.756638,51.000000,25.000000,23.000000
12.114054,35.773792,52.000000,23.000000,24.000000
0.994201,35.761013,53.000000,21.000000,29.000000
-6.059180,35.751934,54.000000,23.000000,31.000000
-7.174975,35.747398,53.000000,24.000000,29.000000
-4.988786,35.747780,50.000000,24.000000,28.000000
-3.825533,35.753094,50.000000,25.000000,25.000000
-4.413893,35.763039,50.000000,25.000000,25.000000
-4.795280,35.776962,53.000000,24.000000,25.000000
-4.548191,35.793808,53.000000,24.000000,27.000000
-5.239868,35.779762,51.000000,23.000000,29.000000
-8.882423,35.768620,50.000000,24.000000,29.000000
-17.172333,35.761425,51.000000,24.000000,27.000000
-28.475626,35.758789,55.000000,22.000000,26.000000
-35.078175,35.760975,55.000000,22.000000,24.000000
-29.140047,35.767914,54.000000,24.000000,25.000000
-12.258553,35.779160,54.000000,23.000000,23.000000
5.962190,35.793808,54.000000,23.000000,25.000000
18.670670,35.778141,54.000000,24.000000,26.000000
24.843546,35.765991,49.000000,26.000000,27.000000
24.454639,35.758373,51.000000,25.000000,27.000000
18.460625,35.755829,51.000000,25.000000,27.000000
11.496839,35.758503,48.000000,25.000000,29.000000
7.908338,35.766190,48.000000,27.000000,31.000000
6.928185,35.778309,47.000000,26.000000,30.000000
5.553616,35.793808,55.000000,20.000000,25.000000
2.896026,35.778873,57.000000,20.000000,21.000000
-0.684822,35.767250,53.000000,21.000000,24.000000
-5.190523,35.759914,52.000000,22.000000,26.000000
-9.970819,35.757397,55.000000,24.000000,30.000000
-14.518728,35.759872,56.000000,22.000000,28.000000
-19.866701,35.767185,50.000000,24.000000,25.000000
-25.004915,35.778820,53.000000,23.000000,25.000000
-23.480143,35.793808,51.000000,25.000000,24.000000
-9.843109,35.778404,49.000000,25.000000,27.000000
11.344797,35.766422,53.000000,23.000000,29.000000
29.417784,35.758877,55.000000,22.000000,30.000000
38.856373,35.756313,50.000000,22.000000,29.000000
40.443382,35.758904,52.000000,22.000000,29.000000
34.729069,35.766468,55.000000,21.000000,23.000000
22.489353,35.778442,55.000000,20.000000,21.000000
8.036525,35.793808,57.000000,21.000000,24.000000
-3.887358,35.778763,53.000000,25.000000,25.000000
-11.594784,35.767067,54.000000,24.000000,28.000000
-15.182853,35.759701,54.000000,24.000000,28.000000
-15.974030,35.757191,52.000000,25.000000,26.000000
-16.430775,35.759701,51.000000,23.000000,26.000000
-17.623474,35.767071,51.000000,25.000000,25.000000
-19.159647,35.778763,48.000000,24.000000,30.000000
-22.128771,35.793808,50.000000,26.000000,32.000000
-27.824783,35.778446,48.000000,23.000000,30.000000
-33.112362,35.766487,52.000000,21.000000,30.000000
-31.409140,35.758945,53.000000,23.000000,24.000000
-19.969517,35.756371,57.000000,21.000000,25.000000
-3.699546,35.758945,56.000000,20.000000,23.000000
9.998148,35.766487,55.000000,20.000000,24.000000
17.934944,35.778446,48.000000,26.000000,29.000000
20.762920,35.793808,51.000000,25.000000,29.000000
19.609688,35.778786,52.000000,26.000000,27.000000
15.834395,35.767113,50.000000,25.000000,27.000000
12.220150,35.759769,50.000000,25.000000,28.000000
11.656407,35.757275,53.000000,25.000000,28.000000
14.162671,35.759789,54.000000,22.000000,27.000000
16.466896,35.767143,53.000000,23.000000,27.000000
15.446157,35.778809,52.000000,23.000000,27.000000
10.879996,35.793808,51.000000,21.000000,27.000000
3.891475,35.778408,57.000000,22.000000,24.000000
-5.492758,35.766396,55.000000,21.000000,25.000000
-17.770412,35.758804,52.000000,26.000000,26.000000
-31.906080,35.756199,53.000000,27.000000,25.000000
-44.067707,35.758762,52.000000,23.000000,27.000000
-47.901981,35.766331,51.000000,25.000000,26.000000
-38.309299,35.778351,50.000000,25.000000,28.000000
-17.133291,35.793808,51.000000,24.000000,28.000000
6.324339,35.778900,50.000000,24.000000,30.000000
22.872225,35.767349,49.000000,25.000000,31.000000
29.912420,35.760105,47.000000,26.000000,31.000000
29.658058,35.757671,50.000000,24.000000,29.000000
24.558544,35.760189,55.000000,18.000000,23.000000
16.359964,35.767475,53.000000,23.000000,23.000000
7.340124,35.779003,57.000000,22.000000,26.000000
0.310780,35.793808,54.000000,22.000000,27.000000
-3.064029,35.778175,50.000000,25.000000,28.000000
-3.792698,35.765934,52.000000,23.000000,29.000000
-4.052217,35.758144,51.000000,25.000000,27.000000
-4.115562,35.755417,50.000000,24.000000,27.000000
-3.174801,35.757973,51.000000,24.000000,26.000000
-2.201488,35.765667,52.000000,22.000000,27.000000
-3.331734,35.777958,52.000000,24.000000,27.000000
-7.815655,35.793808,54.000000,23.000000,29.000000
-15.207057,35.779388,51.000000,22.000000,28.000000
-21.643551,35.768356,53.000000,24.000000,28.000000
-21.063744,35.761593,53.000000,23.000000,26.000000
-11.440578,35.759499,54.000000,21.000000,25.000000
2.808066,35.762119,55.000000,22.000000,25.000000
15.975989,35.769188,54.000000,23.000000,25.000000
24.881941,35.780087,55.000000,21.000000,25.000000
28.210926,35.793808,51.000000,26.000000,25.000000
26.340094,35.776619,53.000000,25.000000,27.000000
21.605303,35.762367,51.000000,23.000000,28.000000
16.781874,35.752171,50.000000,25.000000,29.000000
13.519940,35.746727,48.000000,26.000000,30.000000
12.136180,35.746372,50.000000,24.000000,31.000000
11.768869,35.751106,48.000000,25.000000,30.000000
10.458590,35.760540,51.000000,25.000000,29.000000
5.921595,35.773792,54.000000,20.000000,23.000000
-2.348162,35.757183,56.000000,21.000000,23.000000
-11.635225,35.744492,54.000000,21.000000,23.000000
-18.194872,35.736694,54.000000,23.000000,27.000000
-21.790403,35.734253,52.000000,23.000000,30.000000
-25.420076,35.737232,54.000000,22.000000,30.000000
-28.035782,35.745338,51.000000,26.000000,29.000000
-22.397152,35.757896,47.000000,27.000000,26.000000
-5.263906,35.773792,51.000000,22.000000,26.000000
15.832896,35.759182,53.000000,22.000000,24.000000
31.335201,35.747761,54.000000,23.000000,25.000000
38.913776,35.740501,52.000000,24.000000,31.000000
39.871227,35.737949,53.000000,24.000000,29.000000
33.802803,35.740307,51.000000,22.000000,28.000000
21.473633,35.747463,50.000000,23.000000,27.000000
8.571031,35.758938,54.000000,20.000000,26.000000
1.631500,35.773792,53.000000,18.000000,27.000000
1.323953,35.758312,54.000000,28.000000,26.000000
3.320575,35.746304,55.000000,25.000000,25.000000
4.401329,35.738773,55.000000,23.000000,25.000000
4.095260,35.736256,49.000000,27.000000,24.000000
2.150033,35.738895,48.000000,23.000000,28.000000
-2.144070,35.746490,53.000000,24.000000,28.000000
-9.031206,35.758469,49.000000,25.000000,29.000000
-18.555822,35.773792,49.000000,25.000000,33.000000
-29.522596,35.758682,51.000000,24.000000,29.000000
-37.272499,35.746895,55.000000,21.000000,26.000000
-35.441139,35.739429,53.000000,23.000000,22.000000
-23.280909,35.736847,51.000000,22.000000,25.000000
-7.831892,35.739334,53.000000,22.000000,26.000000
4.229301,35.746750,53.000000,25.000000,28.000000
12.236638,35.758564,53.000000,23.000000,30.000000
16.983459,35.773792,50.000000,25.000000,31.000000
17.603542,35.758671,47.000000,26.000000,28.000000
14.997157,35.746948,50.000000,24.000000,27.000000
13.037017,35.739601,51.000000,23.000000,25.000000
14.797578,35.737144,53.000000,23.000000,25.000000
19.104900,35.739716,57.000000,22.000000,26.000000
21.324923,35.747120,54.000000,21.000000,28.000000
18.164553,35.758808,53.000000,23.000000,27.000000
10.140614,35.773792,51.000000,23.000000,29.000000
-1.062794,35.758327,51.000000,21.000000,27.000000
-13.848073,35.746223,54.000000,21.000000,25.000000
-26.265234,35.738529,52.000000,24.000000,28.000000
-37.739830,35.735832,54.000000,22.000000,25.000000
-46.790379,35.738358,55.000000,23.000000,25.000000
-46.236683,35.745960,53.000000,25.000000,25.000000
-30.158052,35.758110,49.000000,22.000000,27.000000
-5.584928,35.773792,50.000000,25.000000,26.000000
13.496884,35.759193,49.000000,24.000000,29.000000
22.000267,35.748001,46.000000,27.000000,35.000000
23.853111,35.741116,45.000000,27.000000,33.000000
21.455162,35.738972,54.000000,23.000000,27.000000
15.579906,35.741615,54.000000,21.000000,23.000000
10.321383,35.748783,54.000000,22.000000,23.000000
8.906075,35.759857,55.000000,22.000000,21.000000
8.332928,35.773792,56.000000,21.000000,27.000000
4.401328,35.756832,54.000000,23.000000,29.000000
-1.381085,35.742786,50.000000,24.000000,31.000000
-4.236554,35.732746,52.000000,25.000000,30.000000
-3.410855,35.727375,48.000000,24.000000,27.000000
-2.916792,35.726997,51.000000,24.000000,27.000000
-6.071077,35.731606,55.000000,24.000000,26.000000
-13.288602,35.740818,54.000000,23.000000,25.000000
-23.251818,35.753780,55.000000,22.000000,26.000000
-30.169224,35.736839,52.000000,23.000000,27.000000
-25.133938,35.723839,54.000000,22.000000,26.000000
-8.209003,35.715801,54.000000,23.000000,25.000000
8.797082,35.713234,54.000000,21.000000,26.000000
17.384363,35.716236,51.000000,21.000000,27.000000
19.791683,35.724525,54.000000,24.000000,28.000000
19.932034,35.737423,56.000000,22.000000,27.000000
18.746597,35.753780,51.000000,24.000000,25.000000
17.862228,35.739674,54.000000,24.000000,25.000000
18.256239,35.728737,51.000000,24.000000,24.000000
17.337238,35.721863,48.000000,24.000000,26.000000
12.700979,35.719524,48.000000,27.000000,31.000000
5.985573,35.721863,48.000000,26.000000,33.000000
0.314225,35.728737,51.000000,26.000000,29.000000
-3.178738,35.739674,57.000000,19.000000,24.000000
-5.821743,35.753780,57.000000,21.000000,21.000000
-10.402255,35.737434,55.000000,21.000000,23.000000
-19.054827,35.724548,57.000000,21.000000,26.000000
-30.908770,35.716270,51.000000,25.000000,30.000000
-41.440872,35.713276,49.000000,26.000000,32.000000
-43.380211,35.715843,51.000000,24.000000,27.000000
-30.629005,35.723877,50.000000,24.000000,25.000000
-5.814521,35.736862,53.000000,23.000000,25.000000
19.541405,35.753780,55.000000,23.000000,24.000000
36.463417,35.740799,54.000000,22.000000,26.000000
44.492077,35.731567,53.000000,23.000000,29.000000
45.659573,35.726948,49.000000,23.000000,28.000000
40.861160,35.727318,52.000000,23.000000,27.000000
31.919914,35.732689,56.000000,21.000000,25.000000
21.431658,35.742741,54.000000,20.000000,24.000000
11.299789,35.756805,56.000000,25.000000,27.000000
3.248204,35.773792,51.000000,24.000000,27.000000
-1.602886,35.759895,53.000000,24.000000,27.000000
-3.417060,35.748867,52.000000,25.000000,24.000000
-3.404727,35.741734,52.000000,24.000000,26.000000
-3.905738,35.739109,49.000000,24.000000,26.000000
-6.827193,35.741253,51.000000,24.000000,28.000000
-11.430537,35.748116,50.000000,24.000000,29.000000
-16.839760,35.759258,48.000000,25.000000,34.000000
-24.541800,35.773792,46.000000,26.000000,31.000000
-32.911324,35.758045,58.000000,18.000000,24.000000
-33.604164,35.745831,58.000000,19.000000,22.000000
-21.765432,35.738178,52.000000,25.000000,21.000000
-5.051695,35.735630,52.000000,24.000000,25.000000
5.833229,35.738327,50.000000,25.000000,29.000000
9.927543,35.746063,50.000000,25.000000,29.000000
11.774236,35.758236,52.000000,26.000000,28.000000
12.409608,35.773792,52.000000,25.000000,28.000000
11.349093,35.758923,52.000000,21.000000,26.000000
10.380747,35.747341,56.000000,24.000000,27.000000
10.604190,35.740021,54.000000,22.000000,26.000000
11.033521,35.737499,55.000000,21.000000,26.000000
10.958996,35.739948,53.000000,22.000000,26.000000
10.006293,35.747231,53.000000,21.000000,26.000000
6.619906,35.758831,55.000000,21.000000,24.000000
-0.769841,35.773792,55.000000,19.000000,26.000000
-11.437745,35.758392,55.000000,23.000000,28.000000
-22.437666,35.746414,52.000000,23.000000,26.000000
-31.636129,35.738873,53.000000,21.000000,27.000000
-38.651798,35.736320,54.000000,24.000000,24.000000
-40.976833,35.738918,55.000000,23.000000,22.000000
-33.840462,35.746479,51.000000,23.000000,24.000000
-16.858294,35.758446,52.000000,23.000000,27.000000
3.201942,35.773792,50.000000,24.000000,29.000000
18.728649,35.758739,48.000000,25.000000,32.000000
27.124975,35.747025,47.000000,26.000000,30.000000
29.051571,35.739632,53.000000,22.000000,26.000000
24.568859,35.737103,56.000000,21.000000,22.000000
14.517317,35.739605,54.000000,22.000000,22.000000
3.230500,35.746979,56.000000,21.000000,24.000000
-4.604511,35.758701,55.000000,22.000000,26.000000
-8.518912,35.773792,53.000000,23.000000,28.000000
-10.538899,35.758507,53.000000,24.000000,28.000000
-10.795795,35.746620,51.000000,24.000000,25.000000
-8.608847,35.739128,50.000000,23.000000,26.000000
-5.931896,35.736584,53.000000,23.000000,26.000000
-6.041193,35.739151,54.000000,24.000000,26.000000
-10.412477,35.746651,54.000000,21.000000,26.000000
-18.672022,35.758533,52.000000,21.000000,26.000000
-27.299078,35.773792,53.000000,23.000000,27.000000
-28.008755,35.758667,53.000000,22.000000,27.000000
-15.676605,35.746895,57.000000,21.000000,24.000000
3.244569,35.739468,56.000000,20.000000,26.000000
19.356117,35.736927,57.000000,21.000000,25.000000
31.364437,35.739445,54.000000,24.000000,27.000000
40.105385,35.746864,52.000000,23.000000,27.000000
42.051147,35.758640,50.000000,25.000000,26.000000
35.791084,35.773792,51.000000,24.000000,27.000000
25.773605,35.758572,54.000000,23.000000,26.000000
16.656431,35.746735,50.000000,23.000000,27.000000
9.831410,35.739273,49.000000,26.000000,31.000000
4.755015,35.736729,49.000000,24.000000,30.000000
0.386270,35.739277,54.000000,21.000000,26.000000
-4.131157,35.746742,53.000000,21.000000,24.000000
-9.862429,35.758583,53.000000,21.000000,23.000000
-17.778309,35.773792,55.000000,20.000000,24.000000
-27.233185,35.758625,54.000000,23.000000,27.000000
-37.056831,35.746819,54.000000,22.000000,30.000000
-45.784634,35.739372,50.000000,27.000000,29.000000
-47.909950,35.736832,49.000000,27.000000,28.000000
-36.421696,35.739365,50.000000,23.000000,26.000000
-13.168312,35.746803,53.000000,25.000000,25.000000
10.763867,35.758610,53.000000,23.000000,25.000000
27.224430,35.773792,55.000000,22.000000,27.000000
36.107689,35.758598,52.000000,22.000000,27.000000
38.902725,35.746780,53.000000,21.000000,28.000000
35.386997,35.739330,53.000000,23.000000,26.000000
26.737823,35.736790,53.000000,21.000000,26.000000
16.275913,35.739330,59.000000,21.000000,22.000000
7.113461,35.746780,54.000000,21.000000,24.000000
1.051322,35.758598,54.000000,23.000000,27.000000
-1.678925,35.773792,51.000000,24.000000,27.000000
-2.228171,35.758598,53.000000,24.000000,26.000000
-1.984661,35.746780,52.000000,24.000000,26.000000
-2.373491,35.739330,51.000000,25.000000,26.000000
-5.341285,35.736790,49.000000,25.000000,29.000000
-12.151443,35.739330,48.000000,26.000000,31.000000
-21.875765,35.746780,48.000000,26.000000,32.000000
-29.826235,35.758598,51.000000,24.000000,29.000000
-28.364031,35.773792,59.000000,19.000000,22.000000
-14.503863,35.758598,56.000000,21.000000,20.000000
4.099137,35.746780,52.000000,21.000000,24.000000
16.705696,35.739330,54.000000,23.000000,27.000000
21.098236,35.736790,54.000000,23.000000,31.000000
22.262953,35.739330,52.000000,24.000000,32.000000
23.234116,35.746780,50.000000,26.000000,29.000000
22.551207,35.758598,51.000000,25.000000,27.000000
19.103247,35.773792,52.000000,24.000000,23.000000
15.003820,35.758598,53.000000,23.000000,24.000000
12.786737,35.746780,55.000000,23.000000,26.000000
12.630807,35.739330,52.000000,23.000000,26.000000
12.446321,35.736790,53.000000,22.000000,30.000000
9.267889,35.739330,54.000000,23.000000,28.000000
1.874903,35.746780,54.000000,21.000000,26.000000
-7.929615,35.758598,54.000000,21.000000,24.000000
-17.780354,35.773792,54.000000,23.000000,25.000000
-26.605200,35.758598,56.000000,21.000000,24.000000
-33.950943,35.746780,54.000000,23.000000,26.000000
-39.003292,35.739330,53.000000,25.000000,26.000000
-38.754471,35.736790,52.000000,25.000000,26.000000
-28.835537,35.739330,49.000000,25.000000,26.000000
-9.945748,35.746780,51.000000,23.000000,29.000000
10.271620,35.758598,51.000000,26.000000,29.000000
24.554928,35.773792,47.000000,25.000000,32.000000
30.850424,35.758621,51.000000,24.000000,29.000000
30.010000,35.746826,54.000000,21.000000,23.000000
23.539873,35.739395,57.000000,19.000000,21.000000
13.642894,35.736874,51.000000,23.000000,23.000000
3.666593,35.739418,53.000000,22.000000,24.000000
-2.921983,35.746857,55.000000,22.000000,28.000000
-5.329771,35.758648,51.000000,25.000000,30.000000
-5.731579,35.773792,50.000000,23.000000,29.000000
-5.823741,35.758564,52.000000,24.000000,25.000000
-5.459665,35.746708,52.000000,24.000000,24.000000
-4.956045,35.739227,55.000000,23.000000,25.000000
-5.715714,35.736671,53.000000,24.000000,25.000000
-9.071517,35.739212,50.000000,23.000000,28.000000
-15.771345,35.746685,51.000000,23.000000,29.000000
-23.797224,35.758545,53.000000,23.000000,27.000000
-26.464739,35.773792,51.000000,21.000000,26.000000
-18.400778,35.758682,59.000000,19.000000,22.000000
-3.472513,35.746944,58.000000,18.000000,22.000000
9.629979,35.739563,57.000000,24.000000,22.000000
17.521969,35.737064,54.000000,22.000000,26.000000
21.329910,35.739605,53.000000,25.000000,27.000000
20.983864,35.747005,52.000000,25.000000,26.000000
17.060347,35.758732,51.000000,25.000000,27.000000
12.831044,35.773792,52.000000,24.000000,26.000000
10.224180,35.758469,52.000000,24.000000,27.000000
7.847706,35.746521,52.000000,24.000000,29.000000
4.417311,35.738972,48.000000,25.000000,31.000000
0.362654,35.736378,51.000000,23.000000,28.000000
-4.143501,35.738930,56.000000,19.000000,23.000000
-9.741362,35.746456,55.000000,21.000000,22.000000
-16.716982,35.758415,53.000000,22.000000,26.000000
-25.256273,35.773792,54.000000,23.000000,29.000000
-35.728695,35.758827,55.000000,21.000000,28.000000
-44.756126,35.747223,52.000000,22.000000,28.000000
-43.445980,35.739944,50.000000,25.000000,25.000000
-26.034868,35.737499,49.000000,24.000000,25.000000
1.145011,35.740025,53.000000,26.000000,27.000000
25.203636,35.747345,50.000000,24.000000,26.000000
39.281673,35.758926,55.000000,21.000000,28.000000
44.905094,35.773792,55.000000,24.000000,28.000000
44.559750,35.758255,51.000000,23.000000,25.000000
38.219570,35.746109,55.000000,22.000000,25.000000
27.170515,35.738407,54.000000,21.000000,24.000000
15.104516,35.735737,56.000000,21.000000,26.000000
4.473072,35.738304,55.000000,23.000000,26.000000
-3.686007,35.745953,56.000000,23.000000,26.000000
-7.741959,35.758129,53.000000,23.000000,26.000000
-7.513871,35.773792,53.000000,25.000000,25.000000
-6.557700,35.759144,50.000000,24.000000,24.000000
-8.109246,35.747849,53.000000,24.000000,26.000000
-11.623216,35.740807,52.000000,22.000000,28.000000
-16.385950,35.738483,47.000000,25.000000,31.000000
-23.755659,35.740990,47.000000,26.000000,33.000000
-30.842749,35.748131,49.000000,24.000000,29.000000
-28.743114,35.759377,55.000000,21.000000,24.000000
-14.604582,35.773792,52.000000,21.000000,23.000000
2.035011,35.757740,54.000000,21.000000,23.000000
11.782731,35.745087,54.000000,23.000000,26.000000
15.132341,35.736969,55.000000,23.000000,28.000000
15.800127,35.734058,53.000000,24.000000,29.000000
14.767179,35.736629,48.000000,25.000000,28.000000
13.188338,35.744560,52.000000,24.000000,27.000000
13.291821,35.757305,49.000000,24.000000,26.000000
15.218101,35.773792,54.000000,23.000000,26.000000
16.848518,35.760132,55.000000,23.000000,26.000000
16.689121,35.749870,51.000000,24.000000,28.000000
15.073788,35.743763,52.000000,24.000000,27.000000
12.239140,35.742092,52.000000,22.000000,26.000000
6.825270,35.744789,52.000000,22.000000,25.000000
-2.465172,35.751480,54.000000,21.000000,25.000000
-14.867624,35.761494,58.000000,21.000000,26.000000
-28.522900,35.773792,53.000000,23.000000,26.000000
-41.480530,35.754684,55.000000,23.000000,24.000000
-49.468712,35.738068,54.000000,23.000000,25.000000
-45.337639,35.725178,52.000000,25.000000,26.000000
-26.301645,35.716854,50.000000,24.000000,27.000000
-0.901223,35.713600,50.000000,25.000000,29.000000
18.190929,35.715580,49.000000,25.000000,29.000000
27.072981,35.722553,47.000000,26.000000,31.000000
29.927078,35.733765,49.000000,25.000000,30.000000
29.450630,35.715630,55.000000,21.000000,23.000000
25.105972,35.701962,55.000000,19.000000,22.000000
17.503340,35.693718,54.000000,22.000000,23.000000
9.413975,35.691319,53.000000,21.000000,26.000000
3.269678,35.694733,52.000000,25.000000,29.000000
-0.089004,35.703556,50.000000,24.000000,29.000000
-0.596142,35.716980,50.000000,25.000000,26.000000
0.775647,35.733765,49.000000,25.000000,26.000000
1.450564,35.719952,52.000000,23.000000,26.000000
-0.005735,35.709133,54.000000,24.000000,25.000000
-2.182711,35.702221,54.000000,22.000000,26.000000
-4.682973,35.699738,54.000000,24.000000,27.000000
-10.392372,35.701897,51.000000,24.000000,29.000000
-19.353418,35.708637,50.000000,23.000000,29.000000
-24.327934,35.719543,53.000000,23.000000,26.000000
-18.618053,35.733765,53.000000,20.000000,26.000000
-5.459782,35.717701,56.000000,23.000000,25.000000
6.086010,35.705208,54.000000,22.000000,25.000000
12.576752,35.697369,55.000000,23.000000,25.000000
16.491787,35.694752,54.000000,24.000000,26.000000
17.911907,35.697514,52.000000,24.000000,26.000000
14.604406,35.705433,49.000000,24.000000,27.000000
8.337617,35.717884,51.000000,26.000000,29.000000
3.832279,35.733765,52.000000,25.000000,29.000000
2.715271,35.719234,49.000000,26.000000,30.000000
2.588417,35.707943,49.000000,25.000000,29.000000
1.430027,35.700825,54.000000,21.000000,27.000000
-0.378736,35.698380,55.000000,21.000000,22.000000
-2.975226,35.700775,58.000000,20.000000,23.000000
-8.670986,35.707867,53.000000,23.000000,25.000000
-18.765566,35.719170,53.000000,22.000000,28.000000
-31.123293,35.733765,49.000000,25.000000,28.000000
-41.146317,35.717991,50.000000,26.000000,30.000000
-42.374039,35.705685,49.000000,24.000000,30.000000
-29.745880,35.697906,52.000000,25.000000,29.000000
-6.365281,35.695244,52.000000,22.000000,26.000000
17.436993,35.697891,55.000000,21.000000,26.000000
34.274479,35.705662,51.000000,26.000000,24.000000
43.224667,35.717976,51.000000,23.000000,28.000000
43.877945,35.733765,48.000000,25.000000,29.000000
35.228661,35.719204,53.000000,22.000000,28.000000
20.574286,35.707951,51.000000,21.000000,28.000000
6.450670,35.700920,55.000000,21.000000,28.000000
-2.884196,35.698578,56.000000,23.000000,25.000000
-6.438279,35.701050,54.000000,22.000000,24.000000
-5.790489,35.708153,50.000000,25.000000,23.000000
-4.794463,35.719368,53.000000,24.000000,25.000000
-6.025550,35.733765,48.000000,26.000000,27.000000
-8.824721,35.717686,49.000000,25.000000,29.000000
-12.726886,35.704998,49.000000,26.000000,34.000000
-18.867130,35.696831,48.000000,28.000000,32.000000
-27.385433,35.693855,50.000000,23.000000,28.000000
-35.307014,35.696354,51.000000,22.000000,27.000000
-35.985271,35.704247,53.000000,22.000000,23.000000
-24.014393,35.717049,55.000000,19.000000,23.000000
-3.823502,35.733765,53.000000,25.000000,24.000000
13.205309,35.720612,54.000000,23.000000,25.000000
21.691280,35.711250,53.000000,22.000000,31.000000
24.371487,35.706554,46.000000,29.000000,33.000000
23.923063,35.706917,44.000000,29.000000,33.000000
21.291153,35.712334,53.000000,23.000000,25.000000
18.720634,35.722477,55.000000,24.000000,23.000000
18.525116,35.736664,54.000000,23.000000,23.000000
20.450075,35.753780,56.000000,22.000000,23.000000
21.950987,35.740009,52.000000,21.000000,25.000000
20.109976,35.729076,51.000000,23.000000,27.000000
13.487875,35.722000,52.000000,23.000000,31.000000
3.237864,35.719387,52.000000,24.000000,30.000000
-7.773117,35.721500,53.000000,20.000000,25.000000
-16.943979,35.728294,58.000000,22.000000,24.000000
-23.387375,35.739346,54.000000,23.000000,24.000000
-28.662245,35.753780,53.000000,23.000000,24.000000
-34.095825,35.737946,52.000000,27.000000,27.000000
-35.544617,35.725670,50.000000,27.000000,28.000000
-25.657839,35.717983,48.000000,26.000000,31.000000
-4.887878,35.715431,48.000000,26.000000,29.000000
16.589176,35.718155,49.000000,22.000000,28.000000
30.813801,35.725937,52.000000,23.000000,26.000000
37.380138,35.738163,51.000000,20.000000,22.000000
37.171944,35.753780,59.000000,22.000000,25.000000
30.175226,35.738995,49.000000,25.000000,26.000000
18.859421,35.727478,55.000000,22.000000,27.000000
7.488956,35.720200,59.000000,21.000000,21.000000
-0.616971,35.717686,56.000000,23.000000,29.000000
-4.053544,35.720116,41.000000,33.000000,33.000000
-4.093493,35.727352,46.000000,29.000000,29.000000
-3.446255,35.738892,57.000000,20.000000,23.000000
-3.520343,35.753780,56.000000,22.000000,23.000000
-4.578939,35.738342,56.000000,25.000000,23.000000
-6.922551,35.726334,54.000000,25.000000,26.000000
-10.707673,35.718773,50.000000,24.000000,29.000000
-16.875713,35.716209,52.000000,22.000000,29.000000
-26.264002,35.718815,53.000000,21.000000,27.000000
-34.220165,35.726398,54.000000,21.000000,26.000000
-31.825590,35.738396,53.000000,22.000000,25.000000
-17.489868,35.753780,54.000000,23.000000,25.000000
-0.029694,35.738800,55.000000,25.000000,23.000000
13.317588,35.727146,57.000000,23.000000,26.000000
22.712984,35.719799,52.000000,25.000000,26.000000
28.144091,35.717289,47.000000,24.000000,29.000000
26.950560,35.719780,47.000000,26.000000,31.000000
20.435961,35.727116,48.000000,26.000000,32.000000
14.456946,35.738773,48.000000,25.000000,30.000000
12.434961,35.753780,53.000000,22.000000,23.000000
12.377588,35.738438,57.000000,19.000000,22.000000
10.752782,35.726490,55.000000,21.000000,20.000000
6.568007,35.718956,53.000000,22.000000,24.000000
0.497671,35.716385,54.000000,22.000000,29.000000
-7.515900,35.718956,50.000000,26.000000,31.000000
-17.010153,35.726490,49.000000,27.000000,30.000000
-26.323370,35.738438,51.000000,25.000000,28.000000
-34.986427,35.753780,49.000000,23.000000,26.000000
-41.305733,35.738773,54.000000,22.000000,25.000000
-38.312572,35.727116,58.000000,22.000000,26.000000
-21.196356,35.719780,52.000000,24.000000,26.000000
3.228285,35.717289,49.000000,24.000000,30.000000
22.684866,35.719799,52.000000,23.000000,30.000000
31.438297,35.727146,52.000000,22.000000,27.000000
30.599720,35.738800,56.000000,20.000000,27.000000
22.589273,35.753780,55.000000,21.000000,23.000000
10.868809,35.738396,54.000000,21.000000,26.000000
1.116093,35.726398,54.000000,24.000000,23.000000
-1.810276,35.718815,55.000000,22.000000,25.000000
2.228984,35.716209,50.000000,27.000000,26.000000
8.642624,35.718773,48.000000,25.000000,27.000000
11.991720,35.726334,52.000000,24.000000,29.000000
9.956609,35.738342,50.000000,25.000000,30.000000
3.810901,35.753780,50.000000,24.000000,28.000000
-3.622124,35.738892,52.000000,22.000000,26.000000
-10.346855,35.727352,53.000000,22.000000,22.000000
-17.023548,35.720116,56.000000,19.000000,23.000000
-25.108065,35.717686,54.000000,21.000000,23.000000
-31.236006,35.720200,56.000000,22.000000,26.000000
-28.079088,35.727478,54.000000,24.000000,27.000000
-14.218973,35.738995,46.000000,25.000000,27.000000
2.696219,35.753780,49.000000,25.000000,28.000000
14.646347,35.738163,50.000000,24.000000,27.000000
20.124025,35.725937,54.000000,23.000000,26.000000
21.799561,35.718155,53.000000,23.000000,26.000000
21.988159,35.715431,52.000000,25.000000,27.000000
21.059826,35.717983,55.000000,23.000000,26.000000
18.544825,35.725670,56.000000,20.000000,23.000000
14.611162,35.737946,60.000000,16.000000,18.000000
9.595617,35.753780,57.000000,19.000000,21.000000
3.248240,35.739365,51.000000,24.000000,24.000000
-4.015302,35.728336,50.000000,21.000000,28.000000
-10.238145,35.721569,54.000000,24.000000,26.000000
-13.570481,35.719471,51.000000,24.000000,25.000000
-14.257949,35.722088,53.000000,23.000000,26.000000
-14.397294,35.729149,51.000000,23.000000,24.000000
-17.074350,35.740055,55.000000,23.000000,27.000000
-23.669895,35.753780,52.000000,24.000000,28.000000
-28.690477,35.736626,51.000000,24.000000,26.000000
-22.266186,35.722408,50.000000,25.000000,25.000000
-2.765758,35.712234,53.000000,20.000000,25.000000
19.046688,35.706799,54.000000,22.000000,23.000000
32.168331,35.706440,54.000000,21.000000,24.000000
34.480541,35.711159,57.000000,21.000000,23.000000
28.789392,35.720558,54.000000,21.000000,22.000000
18.465527,35.733765,53.000000,23.000000,27.000000
8.394866,35.717129,50.000000,25.000000,28.000000
3.648568,35.704414,49.000000,24.000000,28.000000
5.289839,35.696587,54.000000,24.000000,27.000000
9.319229,35.694130,53.000000,23.000000,24.000000
11.070425,35.697105,54.000000,21.000000,23.000000
9.790207,35.705227,55.000000,24.000000,25.000000
7.578159,35.717819,53.000000,25.000000,26.000000
4.947438,35.733765,51.000000,21.000000,28.000000
0.083752,35.719238,52.000000,23.000000,27.000000
-8.342845,35.707893,51.000000,21.000000,28.000000
-20.649757,35.700691,56.000000,21.000000,25.000000
-35.593861,35.698166,57.000000,18.000000,21.000000
-45.721031,35.700520,59.000000,18.000000,23.000000
-39.786831,35.707630,50.000000,26.000000,26.000000
-16.964836,35.719021,53.000000,25.000000,25.000000
8.756151,35.733765,51.000000,25.000000,26.000000
24.275099,35.718216,52.000000,25.000000,25.000000
29.000511,35.706142,51.000000,21.000000,26.000000
27.826944,35.698559,52.000000,22.000000,27.000000
23.062157,35.696018,52.000000,25.000000,28.000000
16.202490,35.698666,51.000000,23.000000,30.000000
9.352676,35.706306,51.000000,24.000000,26.000000
3.423332,35.718353,50.000000,23.000000,26.000000
-1.572120,35.733765,52.000000,22.000000,28.000000
-5.365176,35.718800,54.000000,23.000000,24.000000
-7.839981,35.707142,56.000000,21.000000,24.000000
-9.391762,35.699776,55.000000,22.000000,24.000000
-10.766662,35.697243,53.000000,21.000000,26.000000
-13.292798,35.699715,50.000000,24.000000,29.000000
-18.310390,35.707047,49.000000,25.000000,28.000000
-25.752842,35.718719,49.000000,24.000000,27.000000
-33.052586,35.733765,51.000000,25.000000,26.000000
-34.889172,35.718491,52.000000,23.000000,27.000000
-26.220802,35.706623,53.000000,24.000000,27.000000
-8.168002,35.699169,52.000000,24.000000,28.000000
10.528096,35.696655,54.000000,23.000000,27.000000
20.744108,35.699238,53.000000,23.000000,26.000000
21.200897,35.706730,54.000000,22.000000,24.000000
17.582985,35.718575,52.000000,24.000000,24.000000
14.647922,35.733765,50.000000,23.000000,26.000000
12.536160,35.718582,54.000000,22.000000,27.000000
10.142072,35.706749,54.000000,23.000000,28.000000
8.014538,35.699272,52.000000,20.000000,25.000000
6.760924,35.696701,56.000000,23.000000,25.000000
5.556857,35.699219,50.000000,24.000000,25.000000
3.696195,35.706669,55.000000,23.000000,26.000000
2.088267,35.718517,53.000000,23.000000,29.000000
0.894137,35.733765,51.000000,26.000000,27.000000
-2.325482,35.718678,50.000000,24.000000,28.000000
-10.085093,35.706970,52.000000,24.000000,29.000000
-22.471960,35.699615,51.000000,25.000000,27.000000
-36.137749,35.697136,51.000000,24.000000,29.000000
-42.650414,35.699680,50.000000,24.000000,24.000000
-33.228947,35.707066,51.000000,22.000000,25.000000
-9.868400,35.718758,54.000000,23.000000,22.000000
